"Time (s)","Linear Acceleration x (m/s^2)","Linear Acceleration y (m/s^2)","Linear Acceleration z (m/s^2)","Absolute acceleration (m/s^2)"
1.899416791E-3,-7.017024234E-3,4.084280133E-2,-3.795661569E-2,5.619677681E-2
1.185141667E-2,8.346169442E-3,-7.252301574E-3,6.241800383E-2,6.338975962E-2
2.180241677E-2,6.916678704E-2,2.547631860E-2,4.371787727E-2,8.569912504E-2
3.175441665E-2,7.382146306E-2,2.155868411E-2,5.253006980E-2,9.313320301E-2
4.170541675E-2,7.392218135E-2,-1.078811288E-2,3.293678105E-2,8.164376168E-2
5.165641662E-2,5.333559684E-2,-1.900578976E-2,-2.123474836E-2,6.047165016E-2
6.160841673E-2,-5.487538800E-3,-8.145171404E-3,-1.057293534E-2,1.443065699E-2
7.155941683E-2,-4.188126683E-2,4.841494560E-3,-7.820650935E-4,4.216743064E-2
8.151041670E-2,-8.709566586E-2,6.183079720E-2,-1.240925342E-3,1.068187361E-1
9.146241681E-2,-1.080697746E-1,6.609809518E-2,-3.657623425E-2,1.318554332E-1
1.014134167E-1,-1.014852981E-1,2.856598735E-2,-8.261355579E-2,1.339413341E-1
1.113644168E-1,-8.433402590E-2,-1.031273425E-2,-3.444258526E-2,9.167808949E-2
1.213164167E-1,-5.180574596E-2,5.014864504E-2,4.038540289E-2,8.264201523E-2
1.312674168E-1,-4.356468022E-3,5.638470054E-2,5.148692653E-2,7.647951929E-2
1.412194166E-1,-1.184952870E-2,5.107308984E-2,1.231482089E-2,5.385653767E-2
1.511704167E-1,-1.384744920E-2,2.627972603E-2,-2.804865494E-2,4.085465571E-2
1.611214168E-1,-2.067728944E-2,2.319648921E-2,-5.447631553E-2,6.271599767E-2
1.710734167E-1,-1.464047782E-2,6.044851542E-3,-1.784409419E-2,2.385991447E-2
1.810244168E-1,1.804333806E-2,3.290812969E-3,-3.720144778E-3,1.871445900E-2
1.909754167E-1,6.967198648E-2,1.136406362E-2,1.840118766E-3,7.061666714E-2
2.009274168E-1,6.882377476E-2,-1.192948937E-2,-2.965897813E-2,7.588596492E-2
2.108784167E-1,2.864828691E-2,-4.319338202E-3,-8.759538352E-2,9.226230129E-2
2.208294168E-1,-7.816265523E-3,2.534767985E-2,-7.451808572E-2,7.909831844E-2
2.307814166E-1,-6.290368818E-2,8.267962933E-2,1.451790556E-2,1.048978774E-1
2.407324167E-1,-6.662631802E-2,1.151778692E-1,5.802659869E-2,1.451623021E-1
2.506834166E-1,-5.367795132E-2,5.788509607E-2,8.043064401E-2,1.126991362E-1
2.606354167E-1,-3.659260646E-2,-5.941355824E-3,6.392410040E-2,7.389593472E-2
2.705864168E-1,4.634181529E-2,-2.414724648E-2,5.623311147E-2,7.676468057E-2
2.805384167E-1,1.042724466E-1,2.411040902E-2,2.864097789E-2,1.107897132E-1
2.904894168E-1,1.283398055E-1,1.049738932E-1,1.346394494E-2,1.663487353E-1
3.004404167E-1,5.935808279E-2,1.102761483E-1,7.136468232E-2,1.441427375E-1
3.103924168E-1,-4.823879823E-3,1.670900345E-2,6.787784144E-2,7.007040725E-2
3.203434166E-1,-4.137014709E-2,-2.144115508E-2,7.323155209E-2,8.679903469E-2
3.302944168E-1,-7.453957424E-3,-3.160420060E-2,1.818039680E-1,1.846809945E-1
3.402464166E-1,5.022224687E-2,-5.623968959E-2,2.414981925E-1,2.529951655E-1
3.501974167E-1,1.598304970E-1,-2.660073817E-2,2.731766528E-1,3.176143427E-1
3.601484168E-1,2.027693789E-1,2.909574509E-2,2.741784270E-1,3.422510676E-1
3.701004167E-1,1.218268843E-1,-7.124247551E-3,2.634299290E-1,2.903237368E-1
3.800514168E-1,-1.008586228E-2,-4.264549792E-2,2.528761433E-1,2.566450992E-1
3.900034167E-1,-9.247035339E-2,4.066270709E-2,2.581579332E-1,2.772178574E-1
3.999544168E-1,-1.019358261E-1,4.241570234E-2,2.504472099E-1,2.737038717E-1
4.099054167E-1,-9.067993596E-2,-6.540695429E-2,1.675564961E-1,2.014351008E-1
4.198574168E-1,-1.022468249E-1,-9.607501566E-2,4.386405766E-2,1.469995829E-1
4.298084166E-1,-3.968549117E-2,1.178389370E-2,8.961296529E-3,4.235685536E-2
4.397594167E-1,1.672142878E-2,9.757482648E-2,3.732380077E-2,1.057994284E-1
4.497114166E-1,3.504784517E-2,4.471307337E-2,5.142670020E-2,7.663103729E-2
4.596624167E-1,5.207596041E-2,6.660563350E-3,4.258468688E-2,6.759973604E-2
4.696134168E-1,3.990995117E-2,-1.631373167E-3,3.923481703E-2,5.598961018E-2
4.795654167E-1,2.068701044E-2,-7.695812881E-2,6.044968486E-2,1.000233492E-1
4.895164168E-1,1.791367605E-3,-1.283908224E-1,6.916495979E-2,1.458465082E-1
4.994674167E-1,-4.564928569E-2,-4.257123828E-2,5.092734799E-2,8.055906147E-2
5.094194168E-1,-1.014173242E-1,3.315839052E-2,5.077298149E-2,1.181644962E-1
5.193704166E-1,-1.938264281E-1,3.139954805E-2,8.151544869E-2,2.126014680E-1
5.293224168E-1,-2.515119879E-1,-1.993023455E-2,3.704386532E-2,2.550053769E-1
5.392734166E-1,-2.533383657E-1,-1.878476501E-2,-8.211946607E-2,2.669771557E-1
5.492244167E-1,-2.142215893E-1,8.835727572E-3,-1.335550833E-1,2.525983367E-1
5.591764168E-1,-1.464824731E-1,1.269138157E-2,-4.983231068E-2,1.552464018E-1
5.691274167E-1,-7.799973719E-2,1.612252772E-2,-9.915123582E-3,8.026334517E-2
5.790784168E-1,3.965874016E-3,1.207865185E-1,-7.346690252E-2,1.414301841E-1
5.890304167E-1,2.364248559E-3,1.714561504E-1,-1.285997142E-1,2.143377887E-1
5.989814168E-1,-2.361895055E-2,1.441917533E-1,-1.601376951E-1,2.167791455E-1
6.089324167E-1,-6.089319617E-2,1.636243898E-1,-1.933970962E-1,2.605443515E-1
6.188844168E-1,-1.920317714E-1,1.685097384E-1,-1.693049598E-1,3.064896451E-1
6.288354166E-1,-4.799892352E-1,5.458024979E-2,-1.676572144E-1,5.113488155E-1
6.387864167E-1,-7.490266440E-1,-1.303636730E-1,-1.667286766E-1,7.783534237E-1
6.487384166E-1,-8.111514100E-1,-2.387482470E-1,-2.624054968E-2,8.459644802E-1
6.586894167E-1,-5.540622747E-1,-1.488379508E-1,1.231745213E-1,5.867790918E-1
6.686414168E-1,-1.330937745E-1,3.090896666E-2,1.568876664E-1,2.080458048E-1
6.785924167E-1,2.078467721E-1,8.138680995E-2,1.341320573E-1,2.604140977E-1
6.885434168E-1,2.717805570E-1,-5.524390876E-2,2.106909674E-1,3.482918953E-1
6.984954167E-1,1.513590509E-1,-1.830652124E-1,3.473532611E-1,4.208048506E-1
7.084464168E-1,-3.185405944E-2,-1.718905985E-1,3.845843835E-1,4.224526092E-1
7.183974166E-1,-1.629461858E-1,-1.138236541E-1,4.510407668E-1,4.928945699E-1
7.283494167E-1,-2.794346353E-1,-1.310939902E-1,4.829501921E-1,5.731581263E-1
7.383004166E-1,-3.354344795E-1,-1.653241754E-1,4.959549844E-1,6.211438799E-1
7.482514167E-1,-3.622705681E-1,-1.841364223E-1,4.571223827E-1,6.116429181E-1
7.582034168E-1,-4.850659340E-1,-1.948128533E-1,5.346958579E-1,7.477570920E-1
7.681544167E-1,-6.558535284E-1,-1.976563543E-1,5.325125076E-1,8.676297919E-1
7.781054168E-1,-6.780958982E-1,-1.915044987E-1,4.189377987E-1,8.197541701E-1
7.880574167E-1,-5.229227085E-1,-1.198901403E-1,3.082529300E-1,6.187420090E-1
7.980084168E-1,-3.528568798E-1,-1.907478690E-1,3.030225956E-1,5.027080869E-1
8.079604167E-1,-1.544243441E-1,-2.991441375E-1,3.893795389E-1,5.147334440E-1
8.179114168E-1,1.685781509E-2,-3.215489137E-1,5.100321561E-1,6.031672157E-1
8.278624166E-1,1.349664732E-1,-2.656898779E-1,3.639195194E-1,4.703663218E-1
8.378144167E-1,7.832243954E-2,-2.359971321E-1,2.550474337E-1,3.561997253E-1
8.477654168E-1,-5.152989899E-2,-2.224649209E-1,3.434759724E-1,4.124581374E-1
8.577164167E-1,-2.501698326E-1,-2.063494098E-1,3.426158470E-1,4.717527347E-1
8.676684168E-1,-4.406723379E-1,-1.837201005E-1,2.489370203E-1,5.384373917E-1
8.776194167E-1,-8.149259339E-1,-7.971918404E-2,2.738976876E-1,8.634114716E-1
8.875704168E-1,-9.114545473E-1,5.006269097E-2,-1.411851515E-1,9.236822569E-1
8.975224167E-1,-6.616783053E-1,5.217645943E-2,-3.419089186E-1,7.466205672E-1
9.074734168E-1,-2.042007408E-1,-1.657100916E-2,-2.477360388E-1,3.214742381E-1
9.174244166E-1,1.788972074E-1,-1.774846298E-1,1.956359586E-2,2.527602400E-1
9.273764167E-1,4.282722938E-1,-2.363929886E-1,2.711336356E-1,5.592962105E-1
9.373274166E-1,7.568029292E-1,-1.139745122E-1,1.970389066E-1,7.902943716E-1
9.472794167E-1,7.885179345E-1,2.325905442E-2,3.576162940E-1,8.661356305E-1
9.572304168E-1,4.673354220E-1,6.469710231E-2,5.492763287E-1,7.240805183E-1
9.671814167E-1,4.630850809E-1,3.045469648E-1,5.767483020E-1,7.998970245E-1
9.771334168E-1,-3.744773616E-1,-2.309422141E-1,5.498078406E-1,7.041706201E-1
9.870844167E-1,-9.058249211E-1,-2.366637146E-1,-8.771139228E-1,1.282909714E0
9.970354168E-1,-6.904231444E-1,2.654793781E-1,-2.274445267E0,2.391707484E0
1.006987417E0,-6.132428214E-1,-1.953168833E-1,-1.566829262E0,1.693862267E0
1.016938417E0,-8.169254623E-2,-5.523753530E-1,-4.894002922E-1,7.424990564E-1
1.026889417E0,1.184672569E0,1.483789444E-1,-2.472647166E-1,1.219264224E0
1.036841417E0,1.726740670E0,6.984797305E-1,-1.395706987E-1,1.867883094E0
1.046792417E0,1.215562313E0,6.219320762E-1,-2.836191587E-1,1.394572003E0
1.056743417E0,9.791063207E-1,7.472741604E-1,-2.760926227E-1,1.262257895E0
1.066695417E0,5.329787499E-1,1.872442174E-1,1.953976114E-1,5.977515967E-1
1.076646417E0,2.099235204E-1,-3.698597789E-2,1.719666489E-1,2.738765695E-1
1.086597417E0,-9.308672301E-2,1.061643863E-1,3.241135025E-1,3.535329934E-1
1.096549417E0,-4.702680930E-1,5.296934187E-2,6.850878525E-1,8.326483027E-1
1.106500417E0,-4.800073615E-1,-2.472202778E-2,7.048162850E-1,8.531027144E-1
1.116452417E0,1.736512683E-1,3.750719869E-1,5.020397432E-1,6.502904444E-1
1.126403417E0,5.114943255E-1,6.071099693E-1,1.344100193E-1,8.051552726E-1
1.136354417E0,2.964783188E-1,4.796131861E-1,-8.160069378E-1,9.918646704E-1
1.146306417E0,-1.439792801E-1,3.075307989E-1,-1.127954723E0,1.177958863E0
1.156257417E0,-5.916333396E-1,1.638974547E-3,-8.453283855E-1,1.031800743E0
1.166208417E0,-6.236355163E-1,-2.422214931E-1,-5.487038132E-1,8.652562531E-1
1.176160417E0,-3.079391538E-1,-1.442701060E-1,-4.191284180E-2,3.426325616E-1
1.186111417E0,-2.043946856E-1,6.568586648E-2,1.474493102E-1,2.604479212E-1
1.196062417E0,-3.736017776E-1,1.638851756E-1,7.302719191E-2,4.144509739E-1
1.206014417E0,-6.142296121E-1,8.784915268E-2,1.882978857E-1,6.484223807E-1
1.215965417E0,-7.797559550E-1,-4.055979609E-2,3.251567189E-1,8.458080977E-1
1.225916417E0,-7.840236184E-1,-1.472539401E-1,4.260890166E-1,9.043940552E-1
1.235868417E0,-4.230815743E-1,-1.159602267E-1,1.468294322E-1,4.626053122E-1
1.245819417E0,6.441848248E-2,3.733330250E-2,-3.912651929E-1,3.982862884E-1
1.255770417E0,1.850311925E-1,6.124607563E-2,-6.973425932E-1,7.240678948E-1
1.265722417E0,-3.007515371E-3,-1.337269914E-1,-5.425432599E-1,5.587889961E-1
1.275673417E0,-2.645315444E-1,-2.580171615E-1,-3.031958194E-1,4.779931993E-1
1.285624417E0,-3.677433792E-1,-1.112502944E-1,-2.856962724E-1,4.787840651E-1
1.295576417E0,-5.135729375E-1,-4.532761574E-3,-5.333011508E-2,5.163543447E-1
1.305527417E0,-6.415714118E-1,2.056699634E-2,5.448002851E-1,8.419288737E-1
1.315479417E0,-4.753143132E-1,1.120548713E-1,5.068458621E-1,7.038271936E-1
1.325430417E0,-4.088400958E-1,2.091958344E-1,-1.572330907E-2,4.595218641E-1
1.335381417E0,-5.365334916E-1,4.550946414E-1,6.359314799E-2,7.064158894E-1
1.345333417E0,-6.246108319E-1,5.171967494E-1,-5.891902998E-2,8.130821736E-1
1.355284417E0,-5.783109704E-1,5.228282028E-1,-4.248775466E-1,8.878703947E-1
1.365235417E0,-4.518387656E-1,4.127602154E-1,-2.729174750E-1,6.700844825E-1
1.375187417E0,-2.382415858E-1,2.049682975E-1,2.034831047E-2,3.149366760E-1
1.385138417E0,-7.016322568E-2,2.714610797E-1,3.369072104E-1,4.383154850E-1
1.395089417E0,-1.471986839E-1,4.552835065E-1,-4.638619566E-1,6.664221175E-1
1.405041417E0,-5.195571242E-1,6.247673911E-1,-7.450769229E-1,1.102457944E0
1.414992417E0,-8.855862460E-1,6.655406106E-1,1.463265717E-4,1.107793900E0
1.424943417E0,-1.053549562E0,6.317080361E-1,-1.519619720E-1,1.237785993E0
1.434895417E0,-9.777483049E-1,8.064526606E-1,-1.692334776E-1,1.278670251E0
1.444846417E0,-6.863856420E-1,1.185865036E0,5.598372772E-2,1.371326114E0
1.454797417E0,-4.348676607E-1,1.580456783E0,2.524339476E-1,1.658516331E0
1.464749417E0,-4.420573971E-1,1.887747261E0,8.016181827E-2,1.940471690E0
1.474700417E0,-7.532076225E-1,1.969671430E0,1.970663702E-1,2.117961855E0
1.484651417E0,-1.165909073E0,1.892699268E0,1.764258452E-1,2.229973221E0
1.494603417E0,-1.468266841E0,1.928276652E0,-1.383919001E-1,2.427593598E0
1.504554417E0,-1.597526852E0,2.287091040E0,-4.825495116E-1,2.831206721E0
1.514505417E0,-1.629267000E0,2.869174342E0,-1.125944378E0,3.486319420E0
1.524457417E0,-1.618444096E0,3.545865008E0,-1.651861811E0,4.233339980E0
1.534408417E0,-1.811679955E0,4.096540575E0,-1.750267088E0,4.809081391E0
1.544360417E0,-2.170335592E0,4.717642347E0,-1.413710418E0,5.381921872E0
1.554311417E0,-2.832207952E0,5.021744923E0,-1.290541159E0,5.908030166E0
1.564262417E0,-3.845927158E0,5.911836741E0,2.387783602E-1,7.056768698E0
1.574214417E0,-4.928436225E0,7.697334327E0,2.672543589E0,9.522653443E0
1.584165417E0,-6.433800725E0,8.724176731E0,3.651859825E0,1.143858084E1
1.594116417E0,-8.398825958E0,8.416355326E0,3.320286444E0,1.234502396E1
1.604068417E0,-1.032745052E1,6.548148290E0,1.977557570E0,1.238730052E1
1.614019417E0,-1.113939488E1,4.089965966E0,7.740438831E-1,1.189172334E1
1.623970417E0,-1.055277180E1,2.925726857E0,5.320966244E-2,1.095096807E1
1.633922417E0,-8.944244294E0,3.130720298E0,-9.975770903E-1,9.528697477E0
1.643873417E0,-8.169047924E0,2.823354975E0,-8.365658212E-1,8.683577585E0
1.653824417E0,-7.033483561E0,3.286936265E0,-4.083601856E-1,7.774355218E0
1.663776417E0,-4.712724254E0,4.312239098E0,-1.278224730E0,6.514524878E0
1.673727417E0,-2.539369744E0,4.587138340E0,-2.231815556E0,5.698353932E0
1.683678417E0,-7.970556003E-1,4.362582455E0,-1.918961306E0,4.832166781E0
1.693630417E0,6.775601470E-1,3.993076433E0,-1.000014210E-1,4.051388334E0
1.703581417E0,2.773061904E0,4.670941805E0,1.493680594E0,5.633706718E0
1.713532417E0,4.571329224E0,6.531358595E0,1.125067588E0,8.051178364E0
1.723484417E0,1.767327363E0,5.759305104E0,2.483787282E0,6.516305744E0
1.733435417E0,-2.032429011E0,3.836247677E0,3.664342461E0,5.681106371E0
1.743386417E0,-6.217934387E0,1.310770333E0,2.737990304E0,6.919350968E0
1.753338417E0,-7.463406524E0,1.309916639E-1,-6.163316131E-1,7.489957304E0
1.763289417E0,-8.047980155E0,-7.433565259E-2,-3.180562549E0,8.653986855E0
1.773240417E0,-9.946202703E0,-4.785495776E-1,-2.548063384E0,1.027854975E1
1.783192417E0,-1.179029991E1,-1.385967280E0,-4.463624096E-1,1.187987023E1
1.793143417E0,-1.286067952E1,-2.184834933E0,-3.221400672E-1,1.304892162E1
1.803095417E0,-1.365887591E1,-2.640355836E0,-1.174001620E0,1.396118368E1
1.813046417E0,-1.372581717E1,-2.616665842E0,-1.619461219E0,1.406654371E1
1.822997417E0,-1.296462430E1,-1.894703693E0,-1.485496246E0,1.318628395E1
1.832949417E0,-9.882952201E0,-4.522534794E-1,-1.629925689E0,1.002666122E1
1.842900417E0,-7.079860168E0,3.783809263E-1,-1.195377359E0,7.190029148E0
1.852851417E0,-4.938441396E0,5.107151109E-1,-1.054813730E0,5.075595073E0
1.862803417E0,-3.275741771E0,1.328101480E-1,-1.236395504E0,3.503825984E0
1.872754417E0,-2.314019222E0,-4.375097251E-1,-1.210702838E0,2.647999449E0
1.882705417E0,-2.052321823E0,-9.150243455E-1,-1.169490493E0,2.533180300E0
1.892657417E0,-2.228314244E0,-9.825748891E-1,-1.496705943E0,2.858490242E0
1.902608417E0,-2.227916925E0,-1.870804954E-1,-1.625857489E0,2.764421370E0
1.912559417E0,-2.081266418E0,9.945078868E-1,-1.744410371E0,2.892003351E0
1.922511417E0,-1.857019266E0,1.870335422E0,-2.150941547E0,3.401944250E0
1.932462417E0,-1.431896282E0,2.322830392E0,-1.757533277E0,3.245734310E0
1.942413417E0,-7.301687157E-1,2.477192207E0,-9.983115005E-1,2.768799999E0
1.952365417E0,5.500928923E-2,2.660335187E0,-5.550820291E-1,2.718184208E0
1.962316292E0,9.017258768E-1,2.863377997E0,-7.618781662E-1,3.097176367E0
1.972267292E0,1.772636342E0,3.031358562E0,-8.902140248E-1,3.622686206E0
1.982219292E0,2.497727921E0,2.933825836E0,-7.693310273E-1,3.929102827E0
1.992170292E0,3.071217569E0,2.723133699E0,-6.225951505E-1,4.151561058E0
2.002121292E0,3.627135166E0,2.777278331E0,-5.819241842E-1,4.605216628E0
2.012073292E0,4.236332883E0,3.085143006E0,-6.139401019E-1,5.276508894E0
2.022024292E0,5.109409304E0,3.580618519E0,-1.263257028E0,6.365745104E0
2.031975292E0,6.610356233E0,4.043791673E0,2.320748929E-1,7.752607263E0
2.041927292E0,8.082862304E0,3.338696403E0,1.598325874E0,8.890118239E0
2.051878292E0,9.322019448E0,3.148250250E0,1.805891504E0,1.000363786E1
2.061829292E0,9.862905607E0,3.402070865E0,1.739097737E0,1.057711937E1
2.071781292E0,1.114399080E1,3.547799267E0,2.041376420E0,1.187192605E1
2.081732292E0,1.314670543E1,3.057482752E0,3.046223938E0,1.383703525E1
2.091683292E0,1.501114159E1,1.740496244E0,1.649513423E0,1.520146682E1
2.101635292E0,1.640275904E1,4.680672741E-1,-7.775720199E-1,1.642784859E1
2.111586292E0,1.774168605E1,-5.732773948E-1,-3.718242241E-1,1.775483946E1
2.121537292E0,1.825844075E1,-1.932756788E0,8.407465804E-1,1.837969157E1
2.131489292E0,1.773216795E1,-3.007905965E0,1.027940512E-3,1.798547413E1
2.141440292E0,1.796698863E1,-2.177141166E0,-1.664421630E-1,1.809918028E1
2.151391292E0,2.378686621E1,9.236928427E0,1.867134364E-1,2.551804680E1
2.161343292E0,2.845142636E1,2.139916271E1,-1.410361279E0,3.562859730E1
2.171294292E0,1.745937546E1,1.247151457E1,7.884188242E-1,2.147067934E1
2.181246292E0,6.447301946E0,3.510273591E0,5.764241323E0,9.333606007E0
2.191197292E0,-1.692886899E0,1.104728487E0,5.412090422E0,5.777284294E0
2.201148292E0,-3.049831086E0,2.838441376E0,-3.362125611E0,5.353700377E0
2.211100292E0,-6.399654740E0,3.081997204E-1,-5.584013765E0,8.498928026E0
2.221051292E0,-9.971266208E0,-1.569938226E0,1.467577454E0,1.020022742E1
2.231002292E0,-1.008920689E1,4.149558449E-1,4.401014450E0,1.101513559E1
2.240954292E0,-4.338736340E0,2.848503850E0,3.022998798E-1,5.199037645E0
2.250905292E0,7.361310484E-1,1.830158034E0,-3.584611436E-1,2.004959287E0
2.260856292E0,3.497455032E0,2.700448841E-1,9.312194518E-1,3.629364353E0
2.270808292E0,5.718272268E0,-3.961856979E-1,-3.155319826E-1,5.740658610E0
2.280759292E0,6.748982021E0,-7.471022522E-1,-1.069124790E0,6.873859754E0
2.290710292E0,6.436990966E0,-5.567309439E-1,-4.182503124E-1,6.474545186E0
2.300662292E0,4.700221737E0,1.593857431E-1,-9.184704021E-2,4.703820157E0
2.310613292E0,2.485252009E0,9.421922636E-1,-1.403138798E0,3.005495350E0
2.320564292E0,3.074188978E-1,8.465236294E-1,-2.263176513E0,2.435790747E0
2.330516292E0,-1.391963308E0,3.505633825E-1,-1.512340375E0,2.085097107E0
2.340467292E0,-2.153259530E0,1.047610545E-1,-7.161154445E-1,2.271634392E0
2.350418292E0,-2.021257905E0,3.488799691E-1,-6.493346138E-1,2.151473029E0
2.360370292E0,-1.560748596E0,5.046141261E-1,-7.199477828E-1,1.791339277E0
2.370321292E0,-9.934275406E-1,3.252408457E-1,-7.515040362E-1,1.287415319E0
2.380272292E0,-2.517661225E-1,-1.395671904E-2,-3.133672703E-1,4.022188665E-1
2.390224292E0,5.496948431E-1,-2.449375248E-1,-1.201179624E-1,6.136669590E-1
2.400175292E0,1.183340646E0,-2.897733897E-1,-2.535387059E-1,1.244405713E0
2.410126292E0,1.472379918E0,-1.192299896E-1,-3.545060138E-1,1.519142168E0
2.420078292E0,1.268698008E0,9.079907298E-2,-5.902376823E-1,1.402219537E0
2.430029292E0,7.748801811E-1,6.485673130E-2,-5.176983675E-1,9.341612764E-1
2.439980292E0,3.138042766E-1,-4.660113931E-2,-2.110948639E-1,3.810588298E-1
2.449932292E0,8.946576163E-2,-1.417704213E-1,-6.753526770E-2,1.807318102E-1
2.459883292E0,9.436719015E-2,-2.246605504E-1,2.208266772E-2,2.446736064E-1
2.469834292E0,1.850000560E-1,-5.875223815E-2,5.819609486E-2,2.026416336E-1
2.479786292E0,2.102731839E-2,2.875701588E-1,2.822182024E-1,4.034672950E-1
2.489737292E0,-4.104127045E-1,5.235398090E-1,7.753945899E-1,1.021650278E0
2.499688292E0,-9.817850764E-1,3.729751754E-1,7.627483050E-1,1.297997455E0
2.509640292E0,-1.311434430E0,1.265998203E-1,8.245907966E-1,1.554296549E0
2.519591292E0,-1.277217109E0,4.284371853E-2,9.272327471E-1,1.578885586E0
2.529542292E0,-1.044875802E0,1.540045506E-1,8.002605323E-1,1.325103680E0
2.539494292E0,-9.227375539E-1,2.063242668E-1,5.621805489E-1,1.100027848E0
2.549445292E0,-9.382442236E-1,1.034910393E-1,2.060021583E-1,9.661519071E-1
2.559396292E0,-9.758764650E-1,1.344859600E-5,5.392338820E-3,9.758913630E-1
2.569348292E0,-9.906669970E-1,-8.491852820E-2,-3.072559432E-1,1.040691342E0
2.579299292E0,-8.742134115E-1,2.844904304E-2,-3.923738615E-1,9.586530572E-1
2.589250292E0,-6.357610336E-1,3.247198588E-1,-4.718281667E-1,8.557201046E-1
2.599202292E0,-4.523251078E-1,5.545943713E-1,-6.326991391E-1,9.552387767E-1
2.609153292E0,-4.646925536E-1,8.666631943E-1,-6.874688387E-1,1.199857352E0
2.619104292E0,-8.916924933E-1,1.024264367E0,-6.023041062E-1,1.485598611E0
2.629056292E0,-1.595951612E0,9.888752639E-1,-4.503958189E-1,1.930749137E0
2.639007292E0,-2.191122736E0,1.327751817E0,-1.782804541E-1,2.568214876E0
2.648958292E0,-2.637057714E0,1.965381328E0,5.705712120E-2,3.289384846E0
2.658910292E0,-3.142280243E0,2.582835022E0,-7.691427469E-2,4.068276992E0
2.668861292E0,-3.642346697E0,3.074466575E0,1.339450926E-1,4.768330470E0
2.678812292E0,-4.106903888E0,3.302605634E0,-4.586731374E-2,5.270291010E0
2.688764292E0,-4.597653681E0,3.434581969E0,-9.629954875E-2,5.739690433E0
2.698715292E0,-5.143286902E0,3.608283450E0,-5.916039208E-2,6.283041426E0
2.708666292E0,-5.448967642E0,3.796401826E0,-5.983175111E-1,6.667975632E0
2.718618292E0,-5.534775531E0,4.365286793E0,-4.261135749E-1,7.061943199E0
2.728569292E0,-5.405215266E0,5.095555496E0,-3.019104552E-1,7.434526737E0
2.738520292E0,-5.609506456E0,5.317318751E0,-8.860595781E-1,7.779816383E0
2.748472292E0,-6.848416262E0,4.708276277E0,-1.909992993E0,8.527411332E0
2.758423292E0,-6.884191867E0,6.053210136E0,-2.317056851E0,9.455273823E0
2.768374292E0,-7.228918558E0,7.805717731E0,-3.286024684E0,1.113483054E1
2.778326292E0,-8.042872612E0,8.916022707E0,-4.605986840E0,1.286072998E1
2.788277292E0,-8.340996995E0,8.976328551E0,-6.130569384E0,1.370148116E1
2.798228292E0,-7.952334909E0,8.346351875E0,-6.487432557E0,1.322830304E1
2.808180292E0,-6.219349998E0,7.748471151E0,-6.089811367E0,1.165353689E1
2.818131292E0,-3.593322764E0,7.455844320E0,-5.597650056E0,9.991760063E0
2.828082292E0,-9.996937823E-1,7.040145294E0,-4.358278320E0,8.340121302E0
2.838034292E0,8.913144708E-1,6.065420877E0,-2.949934330E0,6.803373020E0
2.847985292E0,1.608097156E0,4.683380587E0,-2.419202007E0,5.511131330E0
2.857936292E0,7.872387099E-1,3.289157622E0,-2.338008740E0,4.111518882E0
2.867888292E0,-2.515527722E0,1.324005505E0,-1.585180017E0,3.254791236E0
2.877839292E0,-4.526555339E0,-2.669838667E-3,-1.049878826E0,4.646714529E0
2.887790292E0,-5.066867886E0,-3.539901432E-1,-2.129785151E0,5.507671376E0
2.897742292E0,-5.643015094E0,-6.062925285E-1,-3.649385283E0,6.747534582E0
2.907693292E0,-5.934667779E0,-4.773617157E-1,-3.935443937E0,7.136937357E0
2.917644292E0,-5.991682810E0,-1.030852425E0,-2.101898026E0,6.432798374E0
2.927596292E0,-5.559559540E0,-1.694188051E0,-6.667521536E-2,5.812350730E0
2.937547292E0,-4.927452723E0,-1.626482556E0,-5.386688948E-2,5.189232842E0
2.947498292E0,-4.561034031E0,-1.655005274E0,-7.684100908E-1,4.912486942E0
2.957450292E0,-4.527110240E0,-2.025052748E0,-1.657338313E0,5.228989964E0
2.967400750E0,-4.743658948E0,-2.547793828E0,-1.336609764E0,5.547979746E0
2.977351750E0,-4.816001285E0,-3.277881267E0,3.479192350E-1,5.836045045E0
2.987303750E0,-4.199986006E0,-3.291292441E0,1.324152855E0,5.497805850E0
2.997254750E0,-3.114474394E0,-2.717987564E0,4.626849121E-1,4.159505316E0
3.007205750E0,-2.408927134E0,-2.319201609E0,-8.817893565E-1,3.458204521E0
3.017157750E0,-1.929933752E0,-1.497366679E0,-1.015292253E-1,2.444802537E0
3.027108750E0,-2.435988048E0,-1.487048097E0,4.882167427E-1,2.895462899E0
3.037059750E0,-3.560747926E0,-2.481316833E0,-4.226455913E-1,4.360560550E0
3.047011750E0,-4.157074460E0,-3.191955264E0,-4.676732083E-1,5.261992465E0
3.056962750E0,-4.009724041E0,-3.205543023E0,-1.802059605E-1,5.136717546E0
3.066913750E0,-3.305984447E0,-2.542001576E0,-6.998117262E-1,4.228598069E0
3.076865750E0,-2.392025757E0,-1.229151973E0,-5.214739877E-1,2.739440986E0
3.086816750E0,-1.519582882E0,2.534007847E-2,-3.939742810E-1,1.570028659E0
3.096767750E0,-3.900791582E-1,1.028096048E0,-9.967315829E-1,1.484121653E0
3.106719750E0,7.200185341E-1,1.702761238E0,-1.435789651E0,2.340793550E0
3.116670750E0,1.502828855E0,2.063718631E0,-1.062144384E0,2.765064167E0
3.126621750E0,2.055466163E0,2.238621715E0,-5.408288197E-1,3.086885833E0
3.136573750E0,2.217622902E0,2.041491610E0,-4.158317212E-1,3.042770999E0
3.146524750E0,2.053821049E0,1.747602950E0,-1.198749375E-1,2.699382703E0
3.156475750E0,2.184874986E0,2.127778972E0,-2.214328142E-1,3.057802242E0
3.166427750E0,2.908348055E0,3.575339068E0,-6.601610991E-1,4.655894171E0
3.176378750E0,4.070655244E0,5.257041559E0,-1.452172526E0,6.805551051E0
3.186329750E0,5.537179322E0,6.761276377E0,-1.458750643E0,8.860201269E0
3.196281750E0,6.753312469E0,6.628783148E0,-8.547576785E-1,9.501505461E0
3.206232750E0,8.122626879E0,5.631274470E0,-5.984405950E-2,9.883921332E0
3.216183750E0,9.708556656E0,5.491440647E0,2.323297584E-1,1.115643177E1
3.226134750E0,1.132657361E1,5.503154374E0,3.772179151E-1,1.259834399E1
3.236086750E0,1.283450972E1,4.857120075E0,1.666926577E0,1.382370787E1
3.246037750E0,1.383255692E1,3.096028767E0,3.001593311E0,1.448911963E1
3.255988750E0,1.525077101E1,9.859767991E-1,4.056048607E0,1.581169495E1
3.265940750E0,1.724104862E1,-7.758775699E-1,4.278835709E0,1.778100611E1
3.275891750E0,1.942648874E1,-9.307527709E-1,3.717134340E0,1.980080435E1
3.285842750E0,2.105989323E1,6.191914862E-1,3.713254127E0,2.139370835E1
3.295794750E0,2.013264411E1,1.580698857E0,4.106144627E0,2.060782355E1
3.305745750E0,1.682927366E1,1.421445261E0,5.723549380E0,1.783266598E1
3.315696750E0,1.423328299E1,2.995594652E0,6.232492785E0,1.582415553E1
3.325648750E0,1.072537927E1,6.002033551E0,4.338522332E0,1.303383839E1
3.335599750E0,4.228960714E0,8.299117482E0,2.454717264E0,9.632502092E0
3.345550750E0,1.956978294E-1,9.278544230E0,-2.335675263E0,9.570008339E0
3.355502750E0,-2.519370805E0,7.328620602E0,-6.265340688E0,9.965460507E0
3.365453750E0,-9.982016898E0,1.243328547E-1,-6.511763406E-1,1.000400673E1
3.375404750E0,-1.563087395E1,-3.834267810E0,9.837708786E0,1.886282969E1
3.385356750E0,-1.526688711E1,7.297898161E-1,9.844173467E0,1.818015914E1
3.395307750E0,-8.193272939E0,5.087224967E0,1.560420860E0,9.769569723E0
3.405258750E0,-2.698121941E0,1.070850888E0,-1.890140526E0,3.463988286E0
3.415210750E0,-3.860010177E-1,-2.962721606E0,-1.294213357E0,3.256025846E0
3.425161750E0,2.868150494E0,-1.916548891E0,-1.315577036E0,3.691908700E0
3.435112750E0,5.420185892E0,6.683759254E-1,-2.224790565E0,5.897019123E0
3.445064750E0,6.569028697E0,2.178835689E0,-2.991843956E0,7.539933238E0
3.455015750E0,6.471403584E0,2.436170481E0,-1.975066948E0,7.191305891E0
3.464966750E0,4.895252692E0,1.526509786E0,-9.261548129E-1,5.210709527E0
3.474918750E0,2.866046081E0,3.762794369E-1,-6.567689100E-1,2.964313033E0
3.484869750E0,9.007214713E-1,-3.381561756E-2,1.735900918E-1,9.179194871E-1
3.494820750E0,-8.293334001E-1,1.461020386E-1,1.223678687E0,1.485439067E0
3.504772750E0,-1.902385327E0,3.976018935E-1,1.222468167E0,2.295993383E0
3.514723750E0,-2.170919875E0,6.233441788E-1,6.321367832E-1,2.345431300E0
3.524674750E0,-1.787060839E0,4.706166601E-1,6.238466008E-1,1.950448939E0
3.534626750E0,-9.099959593E-1,2.927081072E-1,3.636807337E-1,1.022758211E0
3.544577750E0,-3.197315991E-2,4.849692357E-1,-2.325727102E-1,5.388019191E-1
3.554528750E0,3.916274279E-1,4.989902741E-1,-4.138694322E-1,7.573976781E-1
3.564480750E0,4.588592982E-1,2.450532997E-1,-3.328702927E-1,6.175804457E-1
3.574431750E0,4.635788783E-1,2.664166868E-2,-1.224594069E-1,4.802202216E-1
3.584382750E0,6.306382880E-1,-9.511782646E-2,5.196186662E-2,6.398844323E-1
3.594333750E0,8.444438479E-1,-2.655805349E-2,-1.954664259E-1,8.671781052E-1
3.604285750E0,9.155790270E-1,1.129483259E-1,-5.248786752E-1,1.061385841E0
3.614236750E0,7.029598671E-1,1.086927223E-1,-5.038569117E-1,8.716871400E-1
3.624187750E0,5.165943035E-1,3.386298001E-2,-3.810127580E-1,6.427963111E-1
3.634139750E0,4.235938269E-1,-1.353571951E-2,-1.069056670E-1,4.370855380E-1
3.644090750E0,2.480339544E-1,1.120513630E-1,-2.685754788E-1,3.823730355E-1
3.654041750E0,-1.235621278E-1,2.141150969E-1,-5.760808423E-1,6.268827730E-1
3.663993750E0,-6.266352110E-1,8.943784118E-2,-8.573449253E-1,1.065697488E0
3.673944750E0,-9.719110295E-1,-6.592794120E-2,-8.451261449E-1,1.289649465E0
3.683895750E0,-9.799553365E-1,-1.606487417E-1,-5.648758230E-1,1.142455765E0
3.693847750E0,-7.115089349E-1,-2.139221388E-1,-4.346937060E-1,8.607939731E-1
3.703798750E0,-2.921519639E-1,-2.422524834E-1,-3.240997615E-1,4.990788426E-1
3.713749750E0,1.518167052E-1,-3.065724403E-1,-1.682442749E-1,3.812362904E-1
3.723701750E0,5.374817638E-1,-3.948291439E-1,-2.137436526E-1,7.003306707E-1
3.733652750E0,7.485585013E-1,-3.781528848E-1,-4.695923741E-1,9.611745065E-1
3.743603750E0,7.765748504E-1,-1.623765939E-1,-1.735968161E-1,8.121394653E-1
3.753555750E0,5.491996571E-1,5.740094662E-2,-5.134206176E-2,5.545729342E-1
3.763506750E0,1.439452931E-1,2.638784105E-1,-4.869960268E-1,5.722911785E-1
3.773457750E0,-2.511156929E-1,2.962176061E-1,-2.886618340E-1,4.838694201E-1
3.783409750E0,-4.886632141E-1,3.266511941E-1,1.175407290E-1,5.994235251E-1
3.793360750E0,-5.565423712E-1,3.549996650E-1,9.550257325E-2,6.669969375E-1
3.803311750E0,-4.967858738E-1,3.565485924E-1,8.320836380E-2,6.171278109E-1
3.813263750E0,-3.593330365E-1,3.191755289E-1,7.945430517E-2,4.871408790E-1
3.823214750E0,-2.551243977E-1,2.274584430E-1,2.395278271E-1,4.173719942E-1
3.833165750E0,-2.960686482E-1,3.329509842E-1,7.230457838E-1,8.492986564E-1
3.843116750E0,-5.537628973E-1,6.610505337E-1,1.029494555E0,1.342944598E0
3.853068750E0,-1.087413419E0,1.097171545E0,7.933338475E-1,1.736557496E0
3.863019750E0,-1.712353888E0,1.449611884E0,4.782086849E-1,2.293951612E0
3.872970750E0,-2.302163993E0,1.781163629E0,-2.850649193E-2,2.910896003E0
3.882922750E0,-2.676207454E0,2.069250097E0,-3.086253977E-1,3.396929781E0
3.892873750E0,-2.747437651E0,2.279606019E0,-4.197189867E-1,3.594604467E0
3.902824750E0,-2.487770990E0,2.518795146E0,-2.477816105E-1,3.548905354E0
3.912776750E0,-2.211001223E0,2.806350687E0,-1.649663258E-1,3.576498913E0
3.922727750E0,-2.144777997E0,3.032769495E0,-1.342167688E-1,3.716958112E0
3.932678750E0,-2.588610609E0,3.192940519E0,-2.767941058E-1,4.119755942E0
3.942630750E0,-3.223144020E0,3.579962461E0,1.428521562E-1,4.819252570E0
3.952581750E0,-4.087842549E0,3.474191592E0,8.933505443E-1,5.438615552E0
3.962532750E0,-4.874924554E0,3.521479779E0,1.294786384E0,6.151599875E0
3.972485542E0,-5.120206772E0,4.062078840E0,2.839612573E0,7.126036869E0
3.982436542E0,-5.495078200E0,3.938551147E0,3.035170362E0,7.410825101E0
3.992387542E0,-6.106962420E0,4.268921755E0,2.771819955E0,7.949947724E0
4.002339542E0,-6.945756031E0,6.235338625E0,2.921521540E0,9.780504216E0
4.012290542E0,-8.741040686E0,7.755681353E0,1.453676283E0,1.177580402E1
4.022241542E0,-1.055593047E1,8.139756297E0,-8.655364358E-1,1.335786113E1
4.032193542E0,-1.173580153E1,7.969332181E0,-2.384858240E0,1.438495192E1
4.042144542E0,-1.169780749E1,6.495292969E0,-4.485938240E0,1.411209314E1
4.052095542E0,-1.105654452E1,5.178869548E0,-5.349808220E0,1.332997804E1
4.062047542E0,-9.089846980E0,4.129101380E0,-6.269232595E0,1.178889620E1
4.071998542E0,-6.301422102E0,2.886525954E0,-6.478709096E0,9.487551008E0
4.081949542E0,-3.144598664E0,1.823550096E0,-4.774165041E0,6.000540605E0
4.091900542E0,-2.612477481E-2,8.149053955E-1,-1.962785164E0,2.125389119E0
4.101852542E0,2.529140625E0,-8.541086376E-2,4.646758890E-1,2.572891564E0
4.111803542E0,4.246076099E0,-7.476425350E-1,1.769097315E0,4.660240005E0
4.121754542E0,5.342838923E0,-1.197155424E0,1.906490511E0,5.797742228E0
4.131706542E0,6.009890454E0,-4.673381263E-1,-2.150793028E-1,6.031869304E0
4.141657542E0,4.112257891E0,6.758931059E-1,-1.186210606E0,4.332965734E0
4.151608542E0,2.210253364E-1,1.451549066E0,-1.855941331E-1,1.479963538E0
4.161560542E0,-3.645217972E0,1.913334092E0,1.860794338E-1,4.121054109E0
4.171511542E0,-7.250898242E0,-6.288563490E-1,1.290820802E0,7.391698314E0
4.181462542E0,-8.363797628E0,-2.902160239E0,1.215157832E0,8.936008805E0
4.191414542E0,-8.868385441E0,-4.637003980E0,-1.135646224E-1,1.000814484E1
4.201365542E0,-8.906691136E0,-6.358212014E0,-1.424326769E0,1.103561116E1
4.211316542E0,-8.736898518E0,-7.430459803E0,-1.155095233E0,1.152733159E1
4.221268542E0,-8.431863896E0,-7.252774613E0,2.859803192E-1,1.112568439E1
4.231219542E0,-7.678726732E0,-5.676196874E0,9.503877211E-1,9.596108169E0
4.241170542E0,-6.335861033E0,-3.226441557E0,3.004919207E-1,7.116414514E0
4.251121542E0,-5.128765926E0,-1.422002501E0,-7.251252729E-2,5.322742630E0
4.261073542E0,-4.295704926E0,-7.818276966E-1,6.448110616E-1,4.413628515E0
4.271024542E0,-3.239107211E0,-4.229051346E-1,1.997546861E0,3.828949952E0
4.280975542E0,-3.012269742E0,-1.251462609E0,1.571820445E0,3.620848957E0
4.290927542E0,-2.492891981E0,-2.275101909E0,9.891886016E-1,3.516972166E0
4.300878542E0,-2.682996364E0,-3.017109482E0,2.312336394E0,4.652775378E0
4.310829542E0,-3.144901257E0,-2.578598714E0,3.703377303E0,5.500416229E0
4.320781542E0,-2.526816941E0,-9.285787761E-1,3.113862190E0,4.116211868E0
4.330732542E0,-1.921747651E0,7.035498512E-1,2.581389005E0,3.294186640E0
4.340683542E0,-1.508777228E0,2.123358477E0,2.686947620E0,3.742291738E0
4.350635542E0,-1.032758033E0,3.244360934E0,2.419483112E0,4.176884671E0
4.360586542E0,-3.741462265E-1,3.854530166E0,2.180454783E0,4.444296487E0
4.370537542E0,4.231976415E-1,4.026191554E0,2.940011605E0,5.003297204E0
4.380489542E0,1.258382643E0,3.640549555E0,3.433245295E0,5.159874146E0
4.390440542E0,1.970580672E0,3.309163286E0,3.440726223E0,5.164527740E0
4.400391542E0,2.535642729E0,3.125107555E0,3.162620952E0,5.118393553E0
4.410343542E0,3.066933315E0,3.025817741E0,2.775856873E0,5.125137494E0
4.420294542E0,3.536370007E0,3.022108267E0,2.330463054E0,5.202894315E0
4.430245542E0,3.889798817E0,3.035404835E0,2.182384218E0,5.395092050E0
4.440196542E0,3.920417177E0,2.849330646E0,1.863587151E0,5.192428434E0
4.450148542E0,3.826970192E0,2.802233078E0,1.614796164E0,5.010566608E0
4.460099542E0,4.104866425E0,3.282927414E0,1.821785552E0,5.562952757E0
4.470050542E0,4.799150194E0,3.869681472E0,1.874102783E0,6.443488071E0
4.480002542E0,5.552130067E0,3.717771978E0,1.342828131E0,6.815509090E0
4.489953542E0,6.066119034E0,3.085110261E0,1.065371901E0,6.888448501E0
4.499904542E0,6.928550599E0,3.401569759E0,2.258981720E0,8.042293742E0
4.509856542E0,8.084743938E0,2.782682912E0,1.912762380E0,8.761567706E0
4.519807542E0,9.030752095E0,2.135809538E0,-3.031054799E-1,9.284828416E0
4.529758542E0,1.033228032E1,1.140122852E0,-6.379357593E-1,1.041455034E1
4.539710542E0,1.166250785E1,-2.579557657E-1,-4.195995574E-1,1.167290428E1
4.549661542E0,1.302891093E1,-1.641190642E0,-3.038565548E-1,1.313538562E1
4.559612542E0,1.490366626E1,-2.531528628E0,-3.617343418E-1,1.512146676E1
4.569564542E0,1.801489837E1,-6.530684996E-1,2.769393361E-1,1.802885901E1
4.579515542E0,2.194024768E1,4.432582982E0,2.662310377E-1,2.238510976E1
4.589466542E0,1.924091565E1,8.514663393E0,-4.893463444E0,2.160227563E1
4.599417542E0,7.765218161E0,5.787918454E0,-4.080857173E0,1.050961504E1
4.609369542E0,-1.655683258E0,2.696862159E0,5.681506730E0,6.503373838E0
4.619320542E0,-4.423234161E0,4.037686011E0,2.994155653E0,6.695735720E0
4.629271542E0,-7.424954649E0,4.313474615E0,-6.085425371E0,1.052465756E1
4.639223542E0,-1.182260110E1,5.119055455E0,-5.025632737E0,1.382879640E1
4.649174542E0,-1.297817815E1,6.294190850E0,2.587169563E0,1.465412545E1
4.659125542E0,-8.614725040E0,2.517698793E0,5.327916244E0,1.043738407E1
4.669077542E0,-3.535052336E0,-1.676679148E0,2.121229652E0,4.450557631E0
4.679028542E0,-8.628904246E-1,-3.973415755E0,-1.675556190E-1,4.069482465E0
4.688979542E0,2.016393314E0,-4.393802494E0,-7.830895257E-1,4.897404574E0
4.698931542E0,5.359578332E0,-1.952277133E0,-3.594235222E-1,5.715387229E0
4.708882542E0,7.528981878E0,1.242859601E0,2.192846203E-1,7.634026058E0
4.718833542E0,7.175246381E0,2.449554173E0,2.552578604E-1,7.586147431E0
4.728784542E0,5.021294103E0,2.013013331E0,-9.303402498E-2,5.410570438E0
4.738736542E0,1.947308169E0,1.298408149E0,-8.950344694E-1,2.505785212E0
4.748687542E0,-5.471739623E-1,1.086835422E0,-1.440573696E0,1.885699646E0
4.758638542E0,-1.808632679E0,2.678188491E-1,-6.410923786E-1,1.937492849E0
4.768590542E0,-1.766543544E0,-5.491669858E-1,8.070571165E-1,2.018316541E0
4.778541542E0,-6.251820318E-1,-2.013862932E-1,1.400472614E0,1.546846002E0
4.788492542E0,5.827786086E-1,5.778885090E-1,6.908086221E-1,1.072754673E0
4.798444542E0,1.073907959E0,9.219737613E-1,1.613841753E-1,1.424555641E0
4.808395542E0,8.539385567E-1,9.528979307E-1,9.133350849E-2,1.282796685E0
4.818346542E0,2.764100169E-1,6.290633404E-1,4.888286904E-2,6.888488358E-1
4.828298542E0,-2.591397538E-1,2.254399842E-1,3.017829859E-1,4.572193883E-1
4.838249542E0,-7.071497626E-1,4.578369856E-2,1.837945063E-1,7.320774237E-1
4.848200542E0,-8.433212556E-1,1.190025330E-2,-3.922287409E-1,9.301482362E-1
4.858152542E0,-5.632984269E-1,2.838472366E-2,-1.672549260E-1,5.882899120E-1
4.868103542E0,2.103473704E-2,6.830541909E-2,1.965731576E-2,7.412489799E-2
4.878054542E0,5.658047628E-1,-5.959131360E-2,-2.452651151E-1,6.195491352E-1
4.888005542E0,9.431372467E-1,-1.138207304E-1,-2.074826002E-1,9.723744414E-1
4.897957542E0,1.093900466E0,-1.244954073E-1,-6.973170117E-2,1.103168096E0
4.907908542E0,1.038465500E0,-1.388082218E-1,-9.046665877E-3,1.047740502E0
4.917859542E0,8.187785912E-1,-7.349540770E-2,4.741051090E-1,9.489866230E-1
4.927811542E0,4.730168691E-1,-7.841174662E-2,5.648069720E-1,7.408780440E-1
4.937762542E0,1.237195641E-1,-2.533493292E-1,3.098743629E-1,4.189445476E-1
4.947713542E0,-1.068653578E-1,-3.243392050E-1,2.451282902E-1,4.203617529E-1
4.957665542E0,-4.015023153E-1,-2.773246676E-1,3.923563564E-1,6.261442253E-1
4.967616500E0,-6.758047398E-1,-1.769045860E-1,3.354359047E-1,7.749351747E-1
4.977567500E0,-7.397418503E-1,1.102024734E-2,9.881429002E-2,7.463938068E-1
4.987519500E0,-6.921218336E-1,8.499454200E-2,-3.354806359E-1,7.738242448E-1
4.997470500E0,-4.736778968E-1,2.416127980E-2,-4.741904052E-1,6.706795492E-1
5.007421500E0,-1.358463878E-1,1.135874265E-1,-4.385984036E-1,4.729956703E-1
5.017372500E0,1.360618212E-1,2.464431828E-1,-4.336529016E-1,5.170124763E-1
5.027324500E0,2.842452858E-1,2.809078413E-1,-2.558764958E-1,4.745285860E-1
5.037275500E0,1.832887953E-1,2.557244682E-1,-1.417482018E-1,3.450830898E-1
5.047226500E0,-1.925332432E-1,3.253010720E-1,-1.754456326E-1,4.167385357E-1
5.057178500E0,-6.410018199E-1,4.650623900E-1,-3.941609533E-1,8.846068148E-1
5.067129500E0,-1.083486137E0,7.249097300E-1,-8.039148228E-1,1.531572841E0
5.077080500E0,-1.534790321E0,9.624785936E-1,-6.678023136E-1,1.930778678E0
5.087032500E0,-1.918352026E0,1.042728705E0,-6.624007288E-1,2.281695066E0
5.096983500E0,-2.177139997E0,1.143913602E0,-1.176810695E0,2.726418953E0
5.106934500E0,-2.197035441E0,1.326070157E0,-1.655202910E0,3.053706512E0
5.116886500E0,-1.972035752E0,1.620234221E0,-1.293628635E0,2.861391092E0
5.126837500E0,-1.641226164E0,1.853249858E0,-6.104458789E-1,2.549667141E0
5.136788500E0,-1.400186247E0,1.895059204E0,-1.694077611E-1,2.362301823E0
5.146739500E0,-1.290312826E0,2.201360918E0,-1.192644517E-1,2.554431657E0
5.156691500E0,-1.359112042E0,2.878577249E0,7.070804000E-1,3.260882582E0
5.166642500E0,-1.968469535E0,2.903955334E0,7.486657977E-1,3.587245374E0
5.176593500E0,-2.681964038E0,3.126458847E0,-3.957859676E-2,4.119374041E0
5.186545500E0,-3.395275816E0,3.670166872E0,-2.799857354E-1,5.007635644E0
5.196496500E0,-4.165523686E0,3.966513117E0,-3.747609150E-1,5.764135636E0
5.206447500E0,-4.946523417E0,4.024128656E0,-8.684454256E-1,6.435518846E0
5.216399500E0,-5.607821873E0,4.026102676E0,-1.073705499E0,6.986416279E0
5.226350500E0,-6.170889444E0,3.952223691E0,-7.759570920E-1,7.368993015E0
5.236301500E0,-6.649596312E0,3.840935390E0,-7.120060945E-1,7.712124770E0
5.246252500E0,-7.044187474E0,3.749172111E0,-1.041575634E0,8.047468452E0
5.256204500E0,-7.396514962E0,3.996740298E0,-1.356619520E0,8.516030948E0
5.266155500E0,-7.922006571E0,4.512898582E0,-1.771596415E0,9.287787443E0
5.276106500E0,-8.517619160E0,5.111624814E0,-2.981129225E0,1.037138736E1
5.286058500E0,-8.992025986E0,5.859635139E0,-4.117785848E0,1.149556504E1
5.296009500E0,-8.789218234E0,6.208421552E0,-4.659204689E0,1.172616918E1
5.305960500E0,-7.568513149E0,6.309156799E0,-4.418847873E0,1.079879935E1
5.315912500E0,-5.648039607E0,6.865514690E0,-3.794473999E0,9.666109677E0
5.325863500E0,-5.083387440E0,6.702505428E0,-4.030361204E0,9.327819590E0
5.335814500E0,-3.278533232E0,6.260164148E0,-4.463169183E0,8.358128646E0
5.345765500E0,-1.299069470E0,4.952105754E0,-3.857684739E0,6.410356030E0
5.355717500E0,-7.094093460E-1,3.526643456E0,-3.281082033E0,4.868878207E0
5.365668500E0,-1.169907399E0,2.552659881E0,-3.290743387E0,4.325938954E0
5.375619500E0,-2.905672662E0,5.621179837E-1,-2.925018175E0,4.161086585E0
5.385571500E0,-4.920661182E0,-1.364945371E0,-2.071015518E0,5.510452578E0
5.395522500E0,-5.587099341E0,-1.532478039E0,-2.573855453E0,6.339471577E0
5.405473500E0,-5.436649312E0,-1.290693918E0,-3.162416300E0,6.420585907E0
5.415425500E0,-4.975274177E0,-1.159932050E0,-2.636478547E0,5.748896818E0
5.425376500E0,-4.536526011E0,-1.005098364E0,-1.703649430E0,4.949011250E0
5.435327500E0,-4.620714807E0,-1.123156571E0,-1.382964735E0,4.952280027E0
5.445278500E0,-5.206747318E0,-1.601240126E0,-1.688921463E0,5.703213417E0
5.455230500E0,-5.890398510E0,-2.519207375E0,-2.169798964E0,6.763965401E0
5.465181500E0,-6.389097008E0,-3.532908162E0,-2.556444198E0,7.735464278E0
5.475132500E0,-6.310787587E0,-4.149808710E0,-2.591218759E0,7.985071506E0
5.485084500E0,-5.745162444E0,-4.079142770E0,-2.411425210E0,7.447232290E0
5.495035500E0,-4.698952307E0,-3.191773415E0,-2.274939503E0,6.119062024E0
5.504986500E0,-3.416336902E0,-1.931697857E0,-1.919524393E0,4.368911573E0
5.514938500E0,-2.424843839E0,-1.371602426E0,-1.794425553E0,3.313777893E0
5.524889500E0,-2.079713105E0,-2.086199421E0,-1.875425423E0,3.492084641E0
5.534840500E0,-2.419698290E0,-3.026770252E0,-1.737789568E0,4.246903643E0
5.544792500E0,-3.376339608E0,-3.737131525E0,-1.092135338E0,5.153501798E0
5.554743500E0,-4.283372856E0,-3.853750148E0,-5.756754841E-1,5.790515995E0
5.564694500E0,-4.703282462E0,-3.258552711E0,-9.545452376E-1,5.800878235E0
5.574645500E0,-4.216740325E0,-1.992512993E0,-1.653716547E0,4.948311370E0
5.584597500E0,-2.988301128E0,-3.286053336E-1,-1.711702216E0,3.459457988E0
5.594548500E0,-1.595653696E0,1.061875997E0,-1.518717787E0,2.445443736E0
5.604499500E0,-5.116255224E-1,1.875027813E0,-1.527993225E0,2.472297164E0
5.614451500E0,2.238358006E-1,2.170468909E0,-1.606595006E0,2.709646704E0
5.624402500E0,9.872655255E-1,2.214626496E0,-1.726337796E0,2.976492218E0
5.634353500E0,1.880789367E0,2.648919083E0,-1.167341641E0,3.452075819E0
5.644305500E0,2.612747915E0,3.040217679E0,-9.913755333E-1,4.129431032E0
5.654256500E0,3.163131122E0,3.298189816E0,-1.373686373E0,4.771841239E0
5.664207500E0,3.641212630E0,3.698253388E0,-1.106413654E0,5.306567507E0
5.674158500E0,4.128626879E0,4.058051863E0,-3.932206114E-1,5.802410471E0
5.684110500E0,4.801862425E0,4.343796521E0,1.095264622E-1,6.475990041E0
5.694061500E0,5.619137989E0,4.750090885E0,3.084149710E-1,7.364319042E0
5.704012500E0,6.436341341E0,5.198648340E0,8.624299563E-2,8.274048118E0
5.713964500E0,7.416345209E0,6.195374660E0,-2.589052805E-1,9.667051018E0
5.723915500E0,7.970927301E0,5.383372407E0,2.149606043E0,9.855819938E0
5.733866500E0,8.124983307E0,4.169162993E0,5.712086499E-1,9.150057548E0
5.743818500E0,9.371050690E0,5.512525122E0,8.724610010E-1,1.090714043E1
5.753769500E0,1.142114297E1,5.807758641E0,1.337958570E0,1.288265114E1
5.763720500E0,1.370008942E1,4.663459707E0,6.269802698E-1,1.448562774E1
5.773671500E0,1.581283228E1,2.840306053E0,2.027841285E0,1.619336727E1
5.783623500E0,1.731116375E1,1.036513699E0,2.512952024E0,1.752328961E1
5.793574500E0,1.861988990E1,1.886042798E-1,1.362449340E0,1.867062237E1
5.803525500E0,1.955340489E1,9.674884880E-1,2.016013391E0,1.968085331E1
5.813477500E0,1.788891076E1,2.180451275E0,2.338169392E0,1.817235626E1
5.823428500E0,1.422196044E1,3.867683478E0,2.969460522E0,1.503465430E1
5.833379500E0,1.169375069E1,6.657456139E0,5.227228360E0,1.443570032E1
5.843331500E0,7.534872363E0,9.323583578E0,1.064547444E0,1.203481506E1
5.853282500E0,-1.570199597E-1,7.732555030E0,4.833425403E-2,7.734300147E0
5.863233500E0,-7.704863786E0,4.218246861E0,2.087138923E0,9.028548135E0
5.873184500E0,-1.000531337E1,1.510203071E0,9.781526399E-1,1.016581485E1
5.883136500E0,-1.020086649E1,-9.939524013E-1,2.362837918E0,1.051801414E1
5.893087500E0,-5.336071356E0,3.971633524E-1,1.315957105E0,5.510275796E0
5.903038500E0,-1.575976938E0,-4.456940728E-1,8.522973163E-1,1.846282002E0
5.912990500E0,9.832575515E-2,-2.112589660E0,-2.998099892E-1,2.136021782E0
5.922941500E0,2.115060547E0,-1.514187364E0,-2.596297066E0,3.675187471E0
5.932892500E0,3.725716590E0,-4.521692795E-1,-2.923467493E0,4.757318925E0
5.942844500E0,5.210412353E0,4.071381176E-1,-1.727486190E0,5.504395232E0
5.952795500E0,6.363877966E0,1.254417792E0,-2.393148422E-1,6.490745594E0
5.962746500E0,6.131351157E0,1.399714084E0,3.778985310E-1,6.300434416E0
5.972698042E0,4.322595102E0,8.522644258E-1,1.740986533E-1,4.409250889E0
5.982650042E0,2.412600501E0,4.528528190E-1,4.316205557E-1,2.492391052E0
5.992601042E0,9.711116420E-1,2.168504244E-1,1.540450279E0,1.833867223E0
6.002552042E0,-2.745726024E-1,8.898292780E-3,1.612181728E0,1.635420196E0
6.012504042E0,-1.344460089E0,7.228620350E-2,5.340168500E-1,1.448437856E0
6.022455042E0,-1.917243394E0,6.557985646E-1,-1.419084156E-1,2.031263643E0
6.032406042E0,-2.103422980E0,1.447561265E0,-2.866669102E-1,2.569435690E0
6.042357042E0,-1.891569732E0,1.448254160E0,-4.816142495E-1,2.430520201E0
6.052309042E0,-9.991568618E-1,9.687748754E-1,-2.116246216E-1,1.407701735E0
6.062260042E0,1.092644247E-1,4.246838576E-1,3.538712986E-1,5.634891209E-1
6.072211042E0,9.219994891E-1,1.323230749E-1,-1.847087185E-1,9.495839956E-1
6.082163042E0,1.265365388E0,1.587250078E-1,-5.278398514E-1,1.380202196E0
6.092114042E0,1.228802017E0,3.053942263E-1,-7.536232133E-1,1.473488371E0
6.102065042E0,8.977543017E-1,3.524292290E-1,-8.581196813E-1,1.290944823E0
6.112017042E0,5.117134864E-1,2.084842283E-1,-9.863703167E-1,1.130593989E0
6.121968042E0,1.970085924E-1,-7.353750765E-2,-7.377277038E-1,7.671129743E-1
6.131919042E0,9.520776395E-2,-2.511776733E-1,-4.694261670E-1,5.408471764E-1
6.141870042E0,2.047189137E-1,-2.645064014E-1,-4.401292777E-1,5.527994674E-1
6.151822042E0,3.338954923E-1,-2.000618988E-1,-3.479604945E-1,5.220990987E-1
6.161773042E0,4.071943239E-1,-2.320759892E-2,-2.309148784E-1,4.686869863E-1
6.171724042E0,3.896058992E-1,1.728162128E-1,-1.885785520E-1,4.660687400E-1
6.181676042E0,1.851473328E-1,1.995929521E-1,-2.153400886E-1,3.471141529E-1
6.191627042E0,-5.400685720E-2,7.286390841E-2,4.302717492E-2,1.003853951E-1
6.201578042E0,-2.676349542E-1,-9.533651233E-2,1.857533236E-1,3.394433922E-1
6.211530042E0,-3.370335833E-1,-2.442329353E-1,2.140104318E-1,4.680190465E-1
6.221481042E0,-2.296193547E-1,-3.221739811E-1,2.597650404E-1,4.732853245E-1
6.231432042E0,-3.508088194E-2,-2.665260297E-1,2.190495622E-1,3.467701018E-1
6.241383042E0,1.514696364E-1,-1.377557230E-1,2.991811211E-1,3.625314238E-1
6.251335042E0,2.650177404E-1,-4.587023735E-2,2.638273935E-1,3.767537325E-1
6.261286042E0,3.071134539E-1,1.013018417E-1,5.524785563E-2,3.280747815E-1
6.271237042E0,2.843672003E-1,3.159186298E-1,-2.414689565E-1,4.888522703E-1
6.281189042E0,1.210534438E-1,4.766351992E-1,-4.482111530E-1,6.653783037E-1
6.291140042E0,-1.404508509E-1,5.511450988E-1,-5.056941068E-1,7.610610298E-1
6.301091042E0,-5.404135577E-1,5.713571692E-1,-5.786718898E-1,9.764000123E-1
6.311042042E0,-9.773078634E-1,6.332248038E-1,-6.350391948E-1,1.326415882E0
6.320994042E0,-1.420685562E0,7.849811000E-1,-6.574821241E-1,1.751235431E0
6.330945042E0,-1.818403084E0,1.088313013E0,-7.650673838E-1,2.253074143E0
6.340896042E0,-2.121411500E0,1.456021017E0,-7.143134058E-1,2.670323500E0
6.350848042E0,-2.385497779E0,1.696681303E0,-3.516807854E-1,2.948390489E0
6.360799042E0,-2.616836581E0,1.889560483E0,-1.341833666E-2,3.227762779E0
6.370750042E0,-2.842685870E0,2.112361618E0,7.295088574E-2,3.542351817E0
6.380701042E0,-3.036050076E0,2.106510894E0,5.197531521E-1,3.731639258E0
6.390653042E0,-3.231836198E0,1.916420837E0,9.572500864E-1,3.877339521E0
6.400604042E0,-3.435882682E0,1.745738858E0,9.349803078E-1,3.965738537E0
6.410555042E0,-3.712720276E0,1.677289597E0,8.459622967E-1,4.160918703E0
6.420507042E0,-4.001268674E0,1.830024133E0,6.428944174E-1,4.446622602E0
6.430458042E0,-4.349596959E0,2.289212410E0,2.561630825E-1,4.921900719E0
6.440409042E0,-4.780070729E0,3.005895107E0,-3.007994477E-1,5.654640738E0
6.450361042E0,-5.292952234E0,3.654489902E0,-9.277905715E-1,6.498571777E0
6.460312042E0,-5.714702543E0,4.303227954E0,-1.094155551E0,7.236903506E0
6.470263042E0,-6.117473960E0,4.840854875E0,-1.149357945E0,7.885327340E0
6.480214042E0,-6.466985428E0,5.030934992E0,-1.247746704E0,8.287887503E0
6.490166042E0,-6.693754485E0,5.051759266E0,-1.660388221E0,8.548889391E0
6.500117042E0,-7.075321559E0,5.521545621E0,-2.902083056E0,9.432376544E0
6.510068042E0,-7.604922007E0,5.987396801E0,-3.925850995E0,1.044490618E1
6.520020042E0,-7.627499861E0,6.068629244E0,-4.657460464E0,1.080272896E1
6.529971042E0,-7.482931547E0,6.022546753E0,-5.051893752E0,1.085297030E1
6.539922042E0,-6.712031127E0,6.095704191E0,-4.767591602E0,1.024396901E1
6.549873042E0,-4.198034205E0,5.988172141E0,-3.694852647E0,8.193511632E0
6.559825042E0,-1.440738734E0,5.359567223E0,-1.929443756E0,5.875665249E0
6.569776042E0,8.808397686E-1,4.819278064E0,-4.968010765E-1,4.924239136E0
6.579727042E0,1.903457560E0,3.839463646E0,-2.924631089E-1,4.295365693E0
6.589679042E0,2.005127776E0,2.379772916E0,-6.215034753E-1,3.173345727E0
6.599630042E0,2.296170596E0,1.891371365E0,-6.388803770E-1,3.042672047E0
6.609581042E0,1.151350091E0,1.278715897E0,-1.012500939E0,1.996466761E0
6.619533042E0,-1.073485644E0,1.542028881E0,-2.203620867E0,2.895888365E0
6.629484042E0,-2.837577742E0,2.013794519E0,-1.948553626E0,3.987991605E0
6.639435042E0,-5.348630590E0,6.682993269E-1,1.323745304E-1,5.391845343E0
6.649386042E0,-8.265565574E0,-8.559645438E-1,1.043871251E0,8.375077119E0
6.659338042E0,-1.082924687E1,-2.301588042E0,2.404655743E-1,1.107374006E1
6.669289042E0,-1.227415233E1,-3.595298538E0,-1.823534893E0,1.291922082E1
6.679240042E0,-1.232423490E1,-4.509972051E0,-3.380381788E0,1.355188529E1
6.689192042E0,-1.133281259E1,-4.688038478E0,-3.077598343E0,1.264444374E1
6.699143042E0,-8.562249203E0,-3.446521398E0,-1.858717589E0,9.415171387E0
6.709094042E0,-5.427582035E0,-1.549889293E0,-5.566929370E-1,5.671923007E0
6.719045042E0,-3.120874171E0,-4.173684061E-1,1.084260162E-1,3.150525064E0
6.728997042E0,-1.881354500E0,-6.658663005E-1,-5.240384303E-1,2.063368353E0
6.738948042E0,-1.582761755E0,-1.464661447E0,-5.157745604E-1,2.217293694E0
6.748899042E0,-2.078994482E0,-2.148202711E0,4.302002670E-1,3.020275685E0
6.758851042E0,-3.033495135E0,-2.628834482E0,3.411487075E-1,4.028553824E0
6.768802042E0,-3.751885804E0,-2.594929987E0,-5.005678529E-1,4.589213102E0
6.778753042E0,-3.755944356E0,-1.867090217E0,-5.282602662E-1,4.227552814E0
6.788704042E0,-3.198722831E0,-9.077135718E-1,-5.107408386E-1,3.364019602E0
6.798656042E0,-2.657556006E0,-2.264708483E-1,-1.046210137E0,2.865039026E0
6.808607042E0,-2.478816563E0,-1.687728631E-1,-1.005475582E0,2.680297928E0
6.818558042E0,-2.073465063E0,-8.718607843E-2,-5.861728442E-1,2.156491916E0
6.828510042E0,-1.656224418E0,1.402396202E-1,-5.182720524E-1,1.741077941E0
6.838461042E0,-9.417355961E-1,6.585865170E-1,-8.690862805E-1,1.440802935E0
6.848412042E0,-5.083218455E-2,1.481657549E0,-8.099890566E-1,1.689371266E0
6.858363042E0,1.282862888E0,2.335518265E0,-9.408661151E-1,2.825882482E0
6.868315042E0,2.375575346E0,2.675868316E0,-1.296990784E0,3.806023458E0
6.878266042E0,3.081542290E0,2.752401352E0,-1.337578647E0,4.342894510E0
6.888217042E0,3.530937651E0,2.844028391E0,-1.076121642E0,4.659834328E0
6.898169042E0,3.770687234E0,3.050780089E0,-7.739292777E-1,4.911650221E0
6.908120042E0,3.940153576E0,3.521982055E0,-4.201492687E-1,5.301480285E0
6.918071042E0,4.154804278E0,4.245236439E0,-3.811249515E-1,5.952284203E0
6.928023042E0,4.796007316E0,5.683369653E0,-7.405217957E-1,7.473335889E0
6.937974042E0,5.400866107E0,6.342018735E0,-2.969613719E-1,8.335390957E0
6.947925042E0,6.314688849E0,5.681165253E0,-6.907864027E-1,8.522213313E0
6.957876042E0,7.946391799E0,6.146434634E0,-1.989560442E-1,1.004805378E1
6.967826792E0,9.912630329E0,6.345976716E0,1.373004588E0,1.184975958E1
6.977777792E0,1.215064276E1,5.606264759E0,2.971621068E0,1.370762036E1
6.987728792E0,1.361592694E1,3.835562384E0,2.995630028E0,1.445955755E1
6.997680792E0,1.461831746E1,1.635427626E0,3.447748437E0,1.510816991E1
7.007631792E0,1.600103427E1,-3.897262788E-1,3.976894848E0,1.649244303E1
7.017582792E0,1.852319917E1,-7.130205864E-1,3.458370781E0,1.885676627E1
7.027533792E0,2.119762322E1,1.183102226E0,3.085349997E0,2.145363246E1
7.037485792E0,2.123931855E1,2.857252454E0,3.732878260E0,2.175331984E1
7.047436792E0,1.802121220E1,3.078445605E0,5.017154274E0,1.895818434E1
7.057387792E0,1.382545957E1,5.896306536E0,3.058001400E0,1.533822466E1
7.067339792E0,5.879487605E0,8.432857922E0,9.063127251E-1,1.032002277E1
7.077290792E0,-5.299874167E0,6.867188163E0,4.276102720E0,9.671194029E0
7.087241792E0,-8.491509588E0,4.785619152E0,5.176693507E-1,9.760935781E0
7.097192792E0,-1.146389898E1,1.364370589E0,1.669750928E0,1.166492842E1
7.107144792E0,-1.232019097E1,-3.839732033E-1,3.906828833E0,1.293050086E1
7.117095792E0,-6.191617239E0,2.231340178E0,-8.286567311E-1,6.633375838E0
7.127046792E0,-9.563559741E-1,1.360263505E0,7.072441220E-2,1.664312319E0
7.136998792E0,1.751495442E0,-1.186493611E0,4.977559268E-1,2.173307234E0
7.146949792E0,3.653559903E0,-2.058913974E0,-1.757373794E0,4.547085810E0
7.156900792E0,4.225757024E0,-1.485343634E0,-2.891940476E0,5.331659015E0
7.166851792E0,4.303596036E0,-1.196819794E-1,-2.652351984E0,5.056701856E0
7.176803792E0,4.388571282E0,1.603701804E0,-1.631740518E0,4.949140783E0
7.186754792E0,4.074805597E0,1.898859894E0,-5.261068828E-1,4.526201278E0
7.196705792E0,3.414297685E0,9.052384454E-1,-4.886424565E-1,3.565901958E0
7.206657792E0,2.576915300E0,1.985047853E-1,-2.201650648E-1,2.593910035E0
7.216608792E0,1.539879883E0,1.564738297E-1,1.233962624E0,1.979489296E0
7.226559792E0,5.002676714E-1,3.829452628E-1,1.632317931E0,1.749679012E0
7.236510792E0,-3.209207035E-1,5.609894711E-1,7.576225626E-1,9.958369505E-1
7.246462792E0,-1.080843707E0,5.964019632E-1,-8.462909102E-2,1.237368378E0
7.256413792E0,-1.813067938E0,7.375806463E-1,-8.195353670E-1,2.121998769E0
7.266364792E0,-2.188763092E0,6.821572280E-1,-9.447745402E-1,2.479641363E0
7.276316792E0,-1.709100205E0,5.234164327E-1,-6.431773496E-1,1.899648750E0
7.286267792E0,-7.060651772E-1,3.601528162E-1,-6.560722142E-3,7.926418665E-1
7.296218792E0,2.131667151E-1,1.928107667E-1,2.074391846E-1,3.544672841E-1
7.306169792E0,7.881850818E-1,1.335778874E-1,1.236113083E-1,8.089243047E-1
7.316121792E0,1.103381142E0,1.298391777E-1,8.759611443E-2,1.114442119E0
7.326072792E0,1.171981772E0,2.778000462E-1,-2.039963441E-1,1.221609041E0
7.336023792E0,1.042698153E0,3.516328382E-1,-5.283580609E-1,1.220666757E0
7.345975792E0,8.069133481E-1,3.335579252E-1,-6.541011178E-1,1.090971271E0
7.355926792E0,5.049249787E-1,2.668961585E-1,-7.163717718E-1,9.161720957E-1
7.365877792E0,2.350054443E-1,9.663517892E-2,-4.244433908E-1,4.946899116E-1
7.375828792E0,1.283311077E-1,-4.388159931E-2,-1.872477257E-1,2.312059228E-1
7.385780792E0,1.125660641E-1,-1.551973826E-1,-3.971531197E-2,1.957923705E-1
7.395731792E0,1.210662346E-1,-2.257779533E-1,1.099335015E-1,2.787796479E-1
7.405682792E0,5.070003748E-2,-3.075261211E-1,2.230525661E-1,3.832691694E-1
7.415634792E0,-5.731104568E-2,-3.489969134E-1,1.041411035E-1,3.686851922E-1
7.425585792E0,-7.750725545E-2,-3.628548145E-1,-1.811654520E-1,4.129066627E-1
7.435536792E0,9.955615550E-3,-2.914772683E-1,-1.548190677E-1,3.301924529E-1
7.445487792E0,1.817856223E-1,-1.630367446E-1,-1.058486366E-1,2.661408019E-1
7.455439792E0,3.158352339E-1,-2.489452064E-2,-2.741420281E-1,4.189576156E-1
7.465390792E0,3.843589003E-1,-3.317710161E-3,-1.249691780E-1,4.041782612E-1
7.475341792E0,4.800268766E-1,-2.861627340E-2,-1.501388101E-1,5.037721268E-1
7.485293792E0,5.178504682E-1,8.970330477E-2,-3.092111425E-1,6.097764516E-1
7.495244792E0,4.122642253E-1,1.874430227E-1,-3.751114556E-1,5.880521086E-1
7.505195792E0,1.192462157E-1,3.903881836E-1,-4.446349959E-1,6.035916446E-1
7.515146792E0,-3.499695978E-1,7.008911222E-1,-5.643697464E-1,9.655259164E-1
7.525098792E0,-9.651396614E-1,1.007779312E0,-4.760079391E-1,1.474346386E0
7.535049792E0,-1.678650098E0,1.229194658E0,-3.468791981E-1,2.109291549E0
7.545000792E0,-2.278004613E0,1.379084523E0,-4.816293061E-1,2.706131173E0
7.554952792E0,-2.590113051E0,1.553096491E0,-3.076791720E-1,3.035697745E0
7.564903792E0,-2.623052171E0,1.716961201E0,1.255550690E-1,3.137534467E0
7.574854792E0,-2.540928612E0,1.862498984E0,2.663311712E-1,3.161669332E0
7.584805792E0,-2.501927099E0,2.038858024E0,2.370028532E-1,3.236163099E0
7.594757792E0,-2.586497133E0,2.269088048E0,4.668370930E-1,3.472270850E0
7.604708792E0,-2.791614827E0,2.202128658E0,1.128263530E0,3.730343491E0
7.614659792E0,-3.133369671E0,1.982093255E0,1.107632287E0,3.869566959E0
7.624611792E0,-3.503044678E0,1.968099114E0,7.602023542E-1,4.089332923E0
7.634562792E0,-3.918703651E0,2.313545598E0,5.740783902E-1,4.586752395E0
7.644513792E0,-4.321515706E0,2.827381952E0,9.286200721E-2,5.165095357E0
7.654464792E0,-4.574198160E0,2.897292432E0,-1.165275162E0,5.538542990E0
7.664416792E0,-5.012087077E0,3.900458876E0,-6.932716155E-1,6.388679194E0
7.674367792E0,-5.494213396E0,5.248494684E0,-2.342312364E-1,7.601838038E0
7.684318792E0,-6.221509960E0,5.721947243E0,-1.196555500E0,8.536955634E0
7.694270792E0,-7.227601765E0,5.995324455E0,-1.895187843E0,9.579868452E0
7.704221792E0,-8.427254536E0,6.042187550E0,-2.173866141E0,1.059492064E1
7.714172792E0,-9.568650327E0,6.296744329E0,-2.742012019E0,1.177822941E1
7.724123792E0,-1.051399307E1,6.896923594E0,-4.254544621E0,1.327451526E1
7.734075792E0,-1.072819529E1,6.724530135E0,-6.025205482E0,1.402200345E1
7.744026792E0,-9.477654203E0,5.864019966E0,-6.980680865E0,1.315076289E1
7.753977792E0,-7.579088423E0,5.548811188E0,-5.606523206E0,1.093914939E1
7.763928792E0,-4.600415028E0,5.765218978E0,-3.365372570E0,8.107237559E0
7.773880792E0,2.818884194E-2,5.874284168E0,-3.362745416E-1,5.883968870E0
7.783831792E0,3.216209514E0,5.558519905E0,4.892370818E-1,6.440535699E0
7.793782792E0,3.379934476E0,4.583610131E0,-2.083724295E0,6.064267955E0
7.803734792E0,2.571403130E0,2.989267965E0,-3.966451721E0,5.592904101E0
7.813685792E0,1.209673728E0,1.954742319E0,-3.200755908E0,3.940706338E0
7.823636792E0,-2.366656442E0,1.009489623E0,-4.686362082E-1,2.615291936E0
7.833587792E0,-5.037798454E0,-1.624561161E-1,4.176741423E-1,5.057692847E0
7.843539792E0,-5.173767267E0,1.247129238E-1,-1.995912711E0,5.546808866E0
7.853490792E0,-4.713537017E0,1.197919071E-2,-2.379882259E0,5.280285435E0
7.863441792E0,-4.875843444E0,-2.378647327E-1,-1.721272500E0,5.176215600E0
7.873393792E0,-6.357031462E0,-7.458328217E-1,-7.738154031E-1,6.447240175E0
7.883344792E0,-8.215732094E0,-1.971221527E0,1.080755487E-1,8.449594574E0
7.893295792E0,-9.945110443E0,-3.505229198E0,-6.329996860E-1,1.056373713E1
7.903246792E0,-1.100945572E1,-4.879151798E0,-2.959669359E0,1.240055967E1
7.913198792E0,-1.113373361E1,-5.647675325E0,-4.216407911E0,1.317703898E1
7.923149792E0,-1.022143465E1,-5.373623344E0,-3.819331682E0,1.216309371E1
7.933100792E0,-8.386776016E0,-4.243782236E0,-3.207642758E0,9.931599653E0
7.943052792E0,-6.346222299E0,-2.749717480E0,-2.944377136E0,7.516970161E0
7.953003792E0,-4.167683648E0,-7.303605044E-1,-2.265195556E0,4.799387915E0
7.962954792E0,-2.139366399E0,9.092016882E-1,-7.567320317E-1,2.444622602E0
7.972906000E0,-1.095695708E0,4.988084257E-1,-6.314978287E-2,1.205548350E0
7.982858000E0,-7.076037258E-1,-6.353993833E-1,-1.056720507E-1,9.568709377E-1
7.992809000E0,-8.299789327E-1,-1.437507563E0,2.207166034E-1,1.674517495E0
8.002760000E0,-1.481723330E0,-2.125226662E0,-1.405395824E-1,2.594579690E0
8.012711000E0,-2.165624783E0,-2.092758243E0,-3.470579767E-1,3.031504083E0
8.022663000E0,-2.176551182E0,-1.033707621E0,1.343264041E-1,2.413290301E0
8.032614000E0,-1.492860814E0,4.315332860E-1,1.113956708E-2,1.554020102E0
8.042565000E0,-9.367777419E-1,1.664786496E0,-2.764487912E-1,1.930152986E0
8.052517000E0,-3.842712651E-1,2.407392824E0,-4.934541303E-1,2.487308102E0
8.062468000E0,-4.120869085E-2,2.693620462E0,-2.194196910E-1,2.702856702E0
8.072419000E0,2.664454843E-1,2.905810656E0,3.677278841E-1,2.941080169E0
8.082370000E0,1.273544327E0,3.379750289E0,1.191242099E-1,3.613698624E0
8.092322000E0,2.311737346E0,3.829666051E0,-3.678436224E-1,4.488405124E0
8.102273000E0,3.186152487E0,4.411199715E0,-2.578646223E-1,5.447636621E0
8.112224000E0,4.323761036E0,5.204994323E0,-3.878024717E-1,6.777703605E0
8.122176000E0,5.597588076E0,5.957155001E0,-3.952658578E-1,8.183943003E0
8.132127000E0,7.075551354E0,6.314610497E0,-6.496432006E-1,9.505775559E0
8.142078000E0,8.643467029E0,6.341970788E0,-7.828873582E-1,1.074909430E1
8.152029000E0,1.003219770E1,6.469135450E0,2.953044172E-1,1.194076668E1
8.161981000E0,1.088220393E1,5.140990115E0,4.836327083E-1,1.204516677E1
8.171932000E0,1.190504684E1,4.910565965E0,-9.907757552E-1,1.291609210E1
8.181883000E0,1.317020772E1,4.511254930E0,-1.104046555E0,1.396512482E1
8.191835000E0,1.443073527E1,2.534559240E0,-4.237184823E-1,1.465775045E1
8.201786000E0,1.635632162E1,-1.517463559E-1,9.336718471E-1,1.638365121E1
8.211737000E0,1.866002635E1,-2.128001166E0,1.395775838E0,1.883276832E1
8.221688000E0,2.070069175E1,-1.797875556E0,1.600771179E0,2.084018867E1
8.231640000E0,2.187417180E1,2.725369674E-1,1.318579874E0,2.191557257E1
8.241591000E0,2.207163929E1,3.796867265E0,7.830390935E-1,2.240952057E1
8.251542000E0,2.133482697E1,8.668622335E0,2.893454612E0,2.320973792E1
8.261493000E0,1.320542317E1,1.116580091E1,1.350863667E0,1.734598350E1
8.271445000E0,1.509320434E0,9.523273010E0,4.508096849E0,1.064395200E1
8.281396000E0,-6.632657513E0,6.209301558E0,5.377847958E0,1.055787953E1
8.291347000E0,-8.661947154E0,3.118996630E0,-1.011562314E0,9.261788531E0
8.301299000E0,-9.942855756E0,-1.443941254E0,-1.184040266E0,1.011668415E1
8.311250000E0,-9.041228551E0,-1.503517950E0,-4.490771256E-2,9.165500349E0
8.321201000E0,-6.710329002E0,-3.706953460E-1,3.036137491E0,7.374554985E0
8.331152000E0,-3.629827808E0,-1.059758720E0,1.766306001E0,4.173556679E0
8.341104000E0,-8.484220742E-1,-2.010007862E0,-2.229589083E0,3.119458142E0
8.351055000E0,2.652520968E0,-2.827929837E-1,-3.894343858E0,4.720355224E0
8.361006000E0,5.169816304E0,1.121671963E0,-3.179549811E0,6.172089242E0
8.370958000E0,5.863598966E0,1.066098272E0,-1.516984233E0,6.149764184E0
8.380909000E0,5.231115589E0,1.841260142E0,-5.324661684E-1,5.571205385E0
8.390860000E0,3.521577428E0,1.572689926E0,-9.295903444E-3,3.856805362E0
8.400811000E0,2.531623353E0,5.227159363E-1,1.715154997E-1,2.590707687E0
8.410763000E0,2.287558379E0,-9.133292377E-2,2.747444375E-1,2.305807786E0
8.420714000E0,1.717282652E0,-3.144299287E-1,6.997843905E-1,1.880857273E0
8.430665000E0,7.947134981E-1,-2.445481002E-2,1.001286856E0,1.278570667E0
8.440616000E0,-3.727046320E-1,5.753432161E-1,3.247777462E-1,7.585572776E-1
8.450568000E0,-1.521820319E0,7.780942494E-1,-4.154468648E-1,1.758966697E0
8.460519000E0,-2.159102945E0,6.877483356E-1,-4.265027802E-1,2.305781412E0
8.470470000E0,-1.916174523E0,5.583032602E-1,-1.979911074E-1,2.005648975E0
8.480422000E0,-1.069290413E0,2.539726424E-1,-3.162042663E-1,1.143621103E0
8.490373000E0,-5.837823562E-3,-5.087954700E-2,-2.481160712E-1,2.533463899E-1
8.500324000E0,8.297185855E-1,-1.182032186E-1,3.008895314E-1,8.904714718E-1
8.510275000E0,1.263865577E0,-4.665668786E-2,2.393477328E-1,1.287175349E0
8.520227000E0,1.258772067E0,5.878907561E-2,-7.977122426E-2,1.262666512E0
8.530178000E0,9.045737632E-1,7.021628916E-2,-4.822564200E-2,9.085756616E-1
8.540129000E0,5.667423273E-1,-9.656559706E-2,-2.679369628E-1,6.342806919E-1
8.550080000E0,4.923639900E-1,-2.500164163E-1,-3.696260364E-1,6.644952324E-1
8.560032000E0,6.147180008E-1,-1.931148219E-1,-3.319664593E-1,7.248263827E-1
8.569983000E0,6.453653046E-1,-8.475539088E-2,-7.185046899E-1,9.694992739E-1
8.579934000E0,4.139142365E-1,-9.176854134E-2,-7.080989119E-1,8.253184412E-1
8.589886000E0,1.705401841E-1,-3.072682589E-1,-5.317024489E-1,6.373423190E-1
8.599837000E0,1.073318560E-1,-4.686964345E-1,-1.746773084E-1,5.115746642E-1
8.609788000E0,1.963706247E-1,-3.035967922E-1,2.823605821E-2,3.626702489E-1
8.619739000E0,1.399133456E-1,-1.720221609E-1,2.656729209E-1,3.460483623E-1
8.629691000E0,4.698369339E-2,-1.481427169E-1,3.438734369E-1,3.773627865E-1
8.639642000E0,4.517149508E-2,-1.101469249E-1,3.118799579E-1,3.338291736E-1
8.649593000E0,1.197871562E-1,-2.421916723E-2,2.465805924E-1,2.752045047E-1
8.659544000E0,1.903252615E-1,3.973241508E-2,1.536309135E-1,2.477999749E-1
8.669496000E0,1.891373996E-1,2.114937901E-2,1.265980661E-1,2.285767322E-1
8.679447000E0,1.082147124E-1,3.121068299E-2,-5.613553606E-2,1.258400935E-1
8.689398000E0,-3.621853083E-2,2.664248729E-1,-3.889239677E-1,4.728169281E-1
8.699350000E0,-2.395418604E-1,4.994247222E-1,-8.266968175E-1,9.951045091E-1
8.709301000E0,-3.893353924E-1,6.241335529E-1,-1.073382733E0,1.301259094E0
8.719252000E0,-5.216502813E-1,8.417458695E-1,-1.088781887E0,1.471768026E0
8.729203000E0,-6.982975897E-1,9.373250413E-1,-6.002354709E-1,1.313956003E0
8.739155000E0,-9.176360044E-1,8.154146880E-1,-6.600231779E-1,1.393767393E0
8.749106000E0,-1.087880758E0,9.830783343E-1,-4.617755239E-1,1.537258661E0
8.759057000E0,-1.401219450E0,1.367864885E0,-2.616757643E-1,1.975587127E0
8.769009000E0,-1.889129250E0,1.748391740E0,-3.542243242E-1,2.598299034E0
8.778960000E0,-2.455829989E0,1.945579147E0,-2.555642545E-1,3.143515905E0
8.788911000E0,-2.903616196E0,2.082767690E0,2.128507096E-2,3.573424313E0
8.798862000E0,-3.142141372E0,2.141574308E0,2.517249727E-1,3.810873703E0
8.808814000E0,-3.171956032E0,2.248431589E0,3.802011279E-1,3.906571717E0
8.818765000E0,-3.059662594E0,2.568111733E0,2.620780528E-1,4.003175985E0
8.828716000E0,-2.988051744E0,3.023844890E0,5.246237000E-2,4.251451922E0
8.838667000E0,-3.197545786E0,3.442701412E0,-4.315783095E-1,4.718342072E0
8.848619000E0,-3.621679421E0,3.814587836E0,-8.172583151E-1,5.323115004E0
8.858570000E0,-4.186485370E0,4.068009086E0,-1.126034571E0,5.945024099E0
8.868521000E0,-4.831806601E0,4.210388787E0,-1.209743310E0,6.522055477E0
8.878472000E0,-5.430519676E0,4.135346791E0,-1.173342712E0,6.925920167E0
8.888424000E0,-5.983894318E0,4.005740917E0,-1.714020637E0,7.402082021E0
8.898375000E0,-6.771142384E0,4.102646822E0,-2.096323290E0,8.189911567E0
8.908326000E0,-7.628721929E0,4.720608639E0,-2.050929016E0,9.202600394E0
8.918278000E0,-8.441294285E0,5.393944758E0,-2.412964051E0,1.030400334E1
8.928229000E0,-8.749084700E0,6.060858294E0,-3.396174533E0,1.117204045E1
8.938180000E0,-8.381794188E0,6.363624197E0,-4.703409054E0,1.152702232E1
8.948131000E0,-7.181609321E0,6.502708992E0,-4.813850679E0,1.081822051E1
8.958083000E0,-5.115212665E0,6.934031779E0,-3.276934018E0,9.218703481E0
8.968034542E0,-2.427292653E0,7.244179791E0,-2.039198332E0,7.907478758E0
8.977985542E0,-3.583173752E-2,6.817017884E0,-2.810770013E0,7.373835149E0
8.987936542E0,1.272762262E0,6.131432433E0,-4.631307623E0,7.788671116E0
8.997888542E0,1.054148902E0,5.036786301E0,-5.248629754E0,7.350412263E0
9.007839542E0,-3.318154550E-1,3.349673381E0,-4.720016901E0,5.797324624E0
9.017790542E0,-2.340815257E0,2.035626853E0,-3.156794202E0,4.425894530E0
9.027742542E0,-4.585137423E0,3.629881310E-1,-9.686865824E-1,4.700382885E0
9.037693542E0,-5.698825014E0,-1.472696691E0,-4.327869290E-1,5.901927364E0
9.047644542E0,-5.301883855E0,-1.832344893E0,-2.418807320E0,6.108853335E0
9.057595542E0,-4.796730031E0,-1.717264087E0,-3.457994805E0,6.157543586E0
9.067547542E0,-4.787359284E0,-6.759381294E-1,-3.715116758E0,6.097359575E0
9.077498542E0,-5.508028028E0,-1.027093835E0,-5.750995333E-1,5.632409251E0
9.087449542E0,-6.791460289E0,-2.788061766E0,9.723590724E-1,7.405585961E0
9.097400542E0,-7.718380210E0,-3.064543265E0,-9.631119932E-1,8.360167654E0
9.107352542E0,-8.156002201E0,-2.952053361E0,-1.949502191E0,8.890194022E0
9.117303542E0,-8.087627785E0,-3.422001100E0,-2.419280798E0,9.108937057E0
9.127254542E0,-7.095915452E0,-3.676119922E0,-3.125339105E0,8.581003339E0
9.137206542E0,-5.568139159E0,-3.368888501E0,-2.762028793E0,7.069822238E0
9.147157542E0,-3.916183208E0,-2.783942987E0,-1.361758638E0,4.994118147E0
9.157108542E0,-2.466722183E0,-2.324890366E0,-8.131899686E-1,3.485844441E0
9.167059542E0,-1.588119559E0,-2.206671944E0,-9.688368559E-1,2.886203329E0
9.177011542E0,-1.479871225E0,-2.452588878E0,-9.191444398E-1,3.008328032E0
9.186962542E0,-2.127094848E0,-2.955632442E0,-2.953428626E-3,3.641470080E0
9.196913542E0,-3.142505946E0,-3.255098176E0,9.358515429E-1,4.620262532E0
9.206864542E0,-4.121339201E0,-3.300446842E0,6.495923299E-1,5.319807925E0
9.216816542E0,-4.301665870E0,-2.794559192E0,-1.115590274E-1,5.130919582E0
9.226767542E0,-3.361139478E0,-1.418626319E0,2.528845487E-1,3.657008316E0
9.236718542E0,-1.962516485E0,-6.632321298E-2,8.911951876E-1,2.156408724E0
9.246670542E0,-8.102463341E-1,6.189260226E-1,8.108164376E-1,1.302686393E0
9.256621542E0,-1.544810987E-1,8.223167413E-1,7.291846293E-1,1.109855602E0
9.266572542E0,2.723092183E-1,9.468261820E-1,7.715383512E-1,1.251360682E0
9.276523542E0,5.631735523E-1,1.204022979E0,1.167481974E0,1.769138193E0
9.286475542E0,7.690952383E-1,1.624384575E0,1.464982460E0,2.318686339E0
9.296426542E0,1.028171915E0,2.319202779E0,1.523838193E0,2.959378627E0
9.306377542E0,1.302981257E0,3.102823817E0,1.432860196E0,3.657644615E0
9.316328542E0,1.748858786E0,4.012431301E0,1.530350822E0,4.636818483E0
9.326280542E0,2.460190258E0,5.022783973E0,1.727171609E0,5.853547362E0
9.336231542E0,3.543158624E0,6.003458517E0,1.649662088E0,7.163579567E0
9.346182542E0,4.629247649E0,6.636116141E0,1.722982518E0,8.272644075E0
9.356133542E0,5.913297375E0,7.621185452E0,2.215775328E0,9.897434711E0
9.366085542E0,6.206984891E0,6.630863587E0,4.194121249E0,1.000428240E1
9.376036542E0,6.203431538E0,6.022328067E0,3.572497905E0,9.354877844E0
9.385987542E0,7.677522790E0,7.582857538E0,4.648611288E0,1.174962432E1
9.395939542E0,9.449412151E0,7.265298180E0,1.962610040E0,1.208005736E1
9.405890542E0,1.200955413E1,5.715816438E0,1.940902544E0,1.344124438E1
9.415841542E0,1.524166105E1,3.500187728E0,4.116513494E0,1.617112331E1
9.425792542E0,1.838339224E1,5.513690472E-1,3.725720683E0,1.876523682E1
9.435744542E0,2.154430932E1,-9.825994474E-1,2.297528028E0,2.168873903E1
9.445695542E0,2.440306918E1,1.013369250E0,2.859468548E0,2.459091831E1
9.455646542E0,2.295412446E1,3.920421270E0,2.901492780E0,2.346657609E1
9.465597542E0,1.843488633E1,5.918823579E0,2.880247506E0,1.957481372E1
9.475549542E0,1.241946500E1,7.688064151E0,-7.315553829E-1,1.462479451E1
9.485500542E0,2.217864392E0,6.678762808E0,-6.781907693E-1,7.069988531E0
9.495451542E0,-7.411508977E0,4.783106604E0,7.206329302E-1,8.850304284E0
9.505403542E0,-1.028056287E1,3.318504798E0,-2.170528696E0,1.101878586E1
9.515354542E0,-1.475705785E1,-5.092971611E-1,3.514743787E0,1.517839135E1
9.525305542E0,-1.469447627E1,-1.332854682E0,4.555734115E0,1.544211280E1
9.535256542E0,-7.384543372E0,1.848042328E0,-9.286524510E-1,7.668711537E0
9.545208542E0,-1.058582261E0,1.049819623E0,8.786260128E-2,1.493464924E0
9.555159542E0,2.152905481E0,-1.179450640E0,8.092862213E-1,2.584772719E0
9.565110542E0,4.362543571E0,-1.635784891E0,-4.987170629E-1,4.685754724E0
9.575061542E0,5.353028281E0,-1.217181553E0,-1.694141711E0,5.745133493E0
9.585013542E0,5.264916004E0,1.866635889E-1,-2.169229445E0,5.697345014E0
9.594964542E0,4.811710598E0,1.726672842E0,-1.404571220E0,5.301582622E0
9.604915542E0,4.163544696E0,1.953998553E0,-3.775851202E-1,4.614735670E0
9.614866542E0,3.291989429E0,9.837343919E-1,9.110459000E-2,3.437037649E0
9.624818542E0,2.664505714E0,2.557747543E-2,4.538972779E-1,2.703010848E0
9.634769542E0,2.114021204E0,-1.302666092E-1,9.779516418E-1,2.332904725E0
9.644720542E0,1.246012419E0,2.446562737E-1,1.066433025E0,1.658216825E0
9.654671542E0,8.860461295E-2,6.267887735E-1,4.917837270E-1,8.016022568E-1
9.664623542E0,-1.232387676E0,6.502746999E-1,-3.579972401E-2,1.393886003E0
9.674574542E0,-2.174088627E0,5.370766979E-1,-3.359226854E-1,2.264499236E0
9.684525542E0,-2.346299361E0,5.757741559E-1,-6.828008603E-1,2.510548463E0
9.694477542E0,-1.879716110E0,4.745576835E-1,-1.398713918E-1,1.943733947E0
9.704428542E0,-1.054349169E0,2.260019016E-1,-6.117956355E-2,1.080033318E0
9.714379542E0,-3.064981075E-1,8.253812671E-2,-1.381378385E-1,3.461729260E-1
9.724330542E0,2.241347395E-1,3.398811042E-2,-2.254382300E-1,3.197091939E-1
9.734282542E0,6.273664054E-1,1.582683402E-1,-3.291865468E-1,7.259485221E-1
9.744233542E0,7.483481477E-1,2.661547315E-1,-3.980208465E-1,8.884165046E-1
9.754184542E0,7.630541874E-1,3.585869318E-1,-6.170857577E-1,1.044811520E0
9.764135542E0,6.879781312E-1,2.985711104E-1,-4.725791319E-1,8.864477722E-1
9.774087542E0,4.893250093E-1,2.357831240E-2,-4.786684223E-1,6.849221562E-1
9.784038542E0,2.366477079E-1,-1.267939478E-1,-6.861904912E-1,7.368420679E-1
9.793989542E0,-3.401614051E-2,-1.221038961E-1,-5.569063604E-1,5.711489766E-1
9.803940542E0,-2.472883065E-1,-1.579169226E-1,-1.058476134E-1,3.119182236E-1
9.813892542E0,-3.768101449E-1,-1.060012490E-1,-1.096693535E-1,4.065089386E-1
9.823843542E0,-4.483922340E-1,-1.053861219E-1,3.493112013E-2,4.619329100E-1
9.833794542E0,-3.774950731E-1,-8.136692941E-2,1.867029114E-1,4.289301628E-1
9.843745542E0,-1.975549782E-1,-1.268272769E-1,1.777122326E-1,2.944397480E-1
9.853697542E0,1.152559295E-2,-2.417379284E-1,3.880563140E-1,4.573376960E-1
9.863648542E0,1.982325974E-1,-2.879513973E-1,3.696972263E-1,5.088105826E-1
9.873599542E0,3.247159850E-1,-2.246090949E-1,1.033236627E-1,4.081243630E-1
9.883551542E0,3.118717353E-1,-9.230473101E-2,-2.269153829E-1,3.965787861E-1
9.893502542E0,1.908414245E-1,2.450801969E-2,-3.858589303E-1,4.311707393E-1
9.903453542E0,6.942417417E-2,1.285580528E-1,-3.408960347E-1,3.708867689E-1
9.913404542E0,2.043857686E-3,2.490995729E-1,-2.811844146E-1,3.756586876E-1
9.923356542E0,-3.199139591E-2,3.806847292E-1,-4.467003787E-1,5.877801806E-1
9.933307542E0,-1.517616317E-1,5.071833926E-1,-6.271689887E-1,8.207359667E-1
9.943258542E0,-3.210021260E-1,6.199539632E-1,-7.369093859E-1,1.015096411E0
9.953209542E0,-5.307098841E-1,6.641735315E-1,-6.174074277E-1,1.050700430E0
9.963161542E0,-8.113370591E-1,6.135664648E-1,-7.062219556E-1,1.238338032E0
9.973112167E0,-1.069837566E0,5.502364415E-1,-8.802199638E-1,1.490670904E0
9.983063167E0,-1.264896002E0,7.894056880E-1,-7.048830163E-1,1.649237189E0
9.993014167E0,-1.450851493E0,1.243616230E0,-5.254436624E-1,1.981828052E0
1.000296617E1,-1.783327538E0,1.565140001E0,-3.037151252E-1,2.392104347E0
1.001291717E1,-2.234703204E0,1.700729915E0,-4.379704857E-1,2.842217233E0
1.002286817E1,-2.653688073E0,1.774662110E0,-2.731807458E-1,3.204077669E0
1.003281917E1,-2.922435752E0,1.907865776E0,2.144782090E-1,3.496653178E0
1.004277117E1,-2.970008698E0,1.963510219E0,6.102562829E-1,3.612303528E0
1.005272217E1,-2.981655475E0,1.723194918E0,7.892641854E-1,3.533073457E0
1.006267317E1,-3.106200584E0,1.537061087E0,1.023865075E0,3.613770682E0
1.007262517E1,-3.355831961E0,1.869792801E0,1.047700592E0,3.981885206E0
1.008257617E1,-3.785137458E0,2.658241884E0,2.122948587E-1,4.630181918E0
1.009252717E1,-4.292237820E0,3.566146660E0,-7.011022067E-1,5.624255667E0
1.010247817E1,-4.786460567E0,4.199398361E0,-1.216850016E0,6.482736715E0
1.011243017E1,-5.225498754E0,4.379753973E0,-1.562138625E0,6.994880927E0
1.012238117E1,-5.491157057E0,4.233919737E0,-1.932531670E0,7.198163712E0
1.013233217E1,-5.781316363E0,4.103153776E0,-2.183763138E0,7.418106985E0
1.014228317E1,-6.386175739E0,4.413289509E0,-2.193406951E0,8.066684505E0
1.015223517E1,-7.702405032E0,4.690558044E0,-2.591452063E0,9.383176532E0
1.016218617E1,-8.917707875E0,6.019426678E0,-2.518187621E0,1.104989955E1
1.017213717E1,-9.662420955E0,7.533194212E0,-3.313215407E0,1.269207588E1
1.018208817E1,-9.471017028E0,7.747650787E0,-5.082133797E0,1.324969208E1
1.019204017E1,-7.990254688E0,7.641539025E0,-5.507368462E0,1.235185800E1
1.020199117E1,-4.981613728E0,8.496083865E0,-3.778039230E0,1.054862535E1
1.021194217E1,-1.642156017E0,8.131654395E0,-2.722674108E0,8.731175974E0
1.022189317E1,-1.104854786E-1,6.441433096E0,-3.704266080E0,7.431409998E0
1.023184517E1,1.449203163E-1,4.108066022E0,-5.028575640E0,6.494904257E0
1.024179617E1,2.024469781E-1,1.707783412E0,-4.457317289E0,4.777571180E0
1.025174717E1,-3.673232567E-1,2.779421335E-1,-2.799807653E0,2.837446228E0
1.026169817E1,-2.585599000E0,-9.179461992E-1,-9.633445662E-1,2.907916809E0
1.027165017E1,-4.926069857E0,-2.558471428E0,-2.458229394E-1,5.556290957E0
1.028160117E1,-5.799825139E0,-3.232346660E0,-1.550295529E0,6.818317446E0
1.029155217E1,-5.850193639E0,-2.449450092E0,-3.257080382E0,7.129736600E0
1.030150417E1,-6.071071626E0,-2.102276341E0,-3.073443897E0,7.122045625E0
1.031145517E1,-5.687769098E0,-1.275260192E0,-1.083463917E0,5.928819438E0
1.032140617E1,-5.290360748E0,-1.564698536E0,-7.543627399E-1,5.568236839E0
1.033135717E1,-5.930509824E0,-2.600234581E0,-3.287879713E0,7.262390768E0
1.034130917E1,-6.408263596E0,-3.275564016E0,-2.570621358E0,7.642202307E0
1.035126017E1,-6.271894832E0,-3.722025243E0,-1.029149277E0,7.365411389E0
1.036121117E1,-5.613964373E0,-4.194855659E0,-1.383632049E0,7.143377886E0
1.037116217E1,-4.235437090E0,-4.048263039E0,-2.209352454E0,6.261677031E0
1.038111417E1,-2.488838691E0,-3.581953438E0,-1.747557488E0,4.698794062E0
1.039106517E1,-1.078900750E0,-3.203890600E0,-1.264424717E0,3.609392147E0
1.040101617E1,-3.785159969E-1,-2.848266453E0,-1.587747091E0,3.282809311E0
1.041096717E1,-5.661326820E-1,-2.937431229E0,-1.759068025E0,3.470349947E0
1.042091917E1,-1.367430437E0,-3.303192109E0,-1.214316418E0,3.775646762E0
1.043087017E1,-2.628271980E0,-3.594101028E0,-2.774848813E-1,4.461207646E0
1.044082117E1,-4.307602548E0,-3.785421925E0,1.719413231E-1,5.737109262E0
1.045077217E1,-5.479734521E0,-3.471321194E0,-2.470635724E-1,6.491425241E0
1.046072417E1,-5.427573849E0,-2.189047267E0,-5.038323534E-1,5.874038888E0
1.047067517E1,-4.242820077E0,-4.530668271E-1,-3.080674271E-1,4.278048304E0
1.048062617E1,-2.782967379E0,8.759409714E-1,-7.894682533E-1,3.022489064E0
1.049057717E1,-1.442534414E0,1.649148118E0,-1.552343370E0,2.685212280E0
1.050052917E1,-6.170946747E-2,2.187521144E0,-1.502101169E0,2.654310595E0
1.051048017E1,1.051058064E0,2.431148892E0,-1.219001207E0,2.915676925E0
1.052043117E1,1.698323348E0,2.340205393E0,-1.227805359E0,3.141396103E0
1.053038317E1,2.279346111E0,2.519369928E0,-1.222041174E0,3.610544025E0
1.054033417E1,2.809911349E0,2.817745741E0,-1.734784684E0,4.341056410E0
1.055028517E1,3.517794572E0,3.390096937E0,-2.259781619E0,5.382773343E0
1.056023617E1,4.191449656E0,3.958343387E0,-1.734047935E0,6.020270329E0
1.057018817E1,4.537980506E0,3.976269196E0,-1.346706151E0,6.182038600E0
1.058013917E1,4.725765591E0,3.874511272E0,-1.047019976E0,6.200076519E0
1.059009017E1,5.122797089E0,4.073701935E0,-8.011503323E-1,6.593932008E0
1.060004117E1,5.832253212E0,4.573640628E0,-8.300450063E-1,7.458038672E0
1.060999317E1,6.863245386E0,5.100999253E0,-1.088918785E0,8.620329154E0
1.061994417E1,7.841832474E0,5.110052497E0,-1.582682233E0,9.492726485E0
1.062989517E1,8.634092188E0,4.511012855E0,-2.076895916E0,9.960435811E0
1.063984617E1,9.318660223E0,3.702986124E0,-1.188375026E0,1.009761208E1
1.064979817E1,9.620510452E0,2.297430087E0,-9.147898722E-1,9.933239495E0
1.065974917E1,1.006508478E1,1.470367160E0,2.160148573E-1,1.017421121E1
1.066970017E1,1.122753698E1,1.508191629E0,1.528019830E0,1.143096992E1
1.067965117E1,1.258032658E1,2.752643427E0,1.082323272E0,1.292335430E1
1.068960317E1,1.433609692E1,4.230235407E0,1.496711791E0,1.502194104E1
1.069955417E1,1.603193564E1,4.876704154E0,2.421878132E0,1.693135250E1
1.070950517E1,1.789394638E1,4.990602068E0,2.316953355E0,1.872078254E1
1.071945617E1,1.842755392E1,6.157222162E0,2.455273919E0,1.958352620E1
1.072940817E1,1.528609521E1,7.111764330E0,4.753676398E0,1.751683014E1
1.073935917E1,8.453399776E0,6.411092479E0,4.175032429E0,1.140144597E1
1.074931017E1,-1.980427383E0,3.739446437E0,5.339906545E0,6.813233754E0
1.075926117E1,-8.794542124E0,3.013068472E0,4.896882895E0,1.050723631E1
1.076921317E1,-1.094856983E1,2.279042348E0,4.491007776E0,1.205132218E1
1.077916417E1,-1.208037794E1,3.102550167E-1,4.529027542E0,1.290518810E1
1.078911517E1,-1.036984634E1,-3.885363704E-1,-2.179407839E-1,1.037941096E1
1.079906617E1,-5.874932624E0,-3.269657743E-1,-2.671846601E0,6.462236781E0
1.080901817E1,-1.895198075E0,-5.698427403E-1,-1.444901952E0,2.450354697E0
1.081896917E1,2.512458811E0,4.503098649E-1,-3.793147266E-1,2.580524736E0
1.082892017E1,6.225283753E0,4.655342603E-1,-1.101911006E0,6.339170909E0
1.083887217E1,7.589847300E0,-1.013945201E0,-3.390110385E0,8.374169531E0
1.084882317E1,7.458850374E0,-7.348459035E-1,-3.511902040E0,8.276950123E0
1.085877417E1,6.474183936E0,1.121484852E0,-2.570859339E0,7.055643390E0
1.086872517E1,4.564494413E0,2.027806202E0,-2.602165039E0,5.631862049E0
1.087867717E1,2.656392702E0,1.431707125E0,-9.330694377E-1,3.158611412E0
1.088862817E1,1.239019003E0,5.082095790E-1,1.097789157E0,1.731642602E0
1.089857917E1,4.201386707E-1,9.733333647E-2,1.627560782E0,1.683729308E0
1.090853017E1,-2.299258219E-1,1.826255018E-1,1.467749508E0,1.496832180E0
1.091848217E1,-1.071038146E0,2.597081763E-1,1.042536478E0,1.517054170E0
1.092843317E1,-1.738283219E0,2.395113087E-1,5.316883425E-1,1.833490309E0
1.093838417E1,-1.911665443E0,3.202005458E-1,2.484973097E-1,1.954160707E0
1.094833517E1,-1.476863709E0,4.909760803E-1,4.597395234E-1,1.622819878E0
1.095828717E1,-9.425575684E-1,1.932919925E-1,1.005589091E0,1.391756439E0
1.096823817E1,4.699948087E-2,2.383564836E-1,8.296858411E-1,8.645237760E-1
1.097818929E1,8.544197825E-1,1.800071186E-1,2.572628707E-3,8.731794466E-1
1.098814029E1,1.216522426E0,3.466948646E-1,-4.476311092E-1,1.341826275E0
1.099809229E1,9.031938934E-1,7.086375135E-1,-4.260442123E-1,1.224516233E0
1.100804329E1,6.692511074E-2,6.778215176E-1,-8.600016077E-1,1.097052298E0
1.101799429E1,-5.935265949E-1,4.622013474E-1,-1.436084497E0,1.621185549E0
1.102794529E1,-8.030772822E-1,3.248578531E-1,-1.200003018E0,1.480024659E0
1.103789729E1,-6.742399518E-1,1.257630837E-1,-7.509706239E-1,1.017041171E0
1.104784829E1,-3.903137778E-1,-5.677821815E-2,-6.069958024E-1,7.238870874E-1
1.105779929E1,-1.929762429E-1,-1.268559283E-1,-7.312865572E-1,7.668847929E-1
1.106775029E1,-8.236106571E-2,-7.494493246E-2,-6.915396702E-1,7.004478593E-1
1.107770229E1,1.975777823E-2,-4.359391630E-2,-4.830279601E-1,4.853934585E-1
1.108765329E1,-4.059180960E-2,4.712504983E-2,-4.074667311E-1,4.121863684E-1
1.109760429E1,-1.763265521E-1,8.594997704E-2,-2.483511293E-1,3.164754887E-1
1.110755529E1,-2.591523436E-1,-9.936348975E-2,-1.217244118E-3,2.775509358E-1
1.111750729E1,-1.599427635E-1,-1.551242924E-1,2.071937478E-1,3.042605508E-1
1.112745829E1,8.253708517E-2,-1.122127461E-1,2.783438373E-1,3.112544981E-1
1.113740929E1,2.401337082E-1,-9.368233502E-2,3.553200924E-1,4.389680465E-1
1.114736029E1,2.483067270E-1,9.231584072E-3,1.056170869E-1,2.699933737E-1
1.115731229E1,6.693367143E-2,-9.681761205E-2,-7.524430990E-2,1.396977901E-1
1.116726329E1,-1.154135851E-1,-1.612363869E-1,-2.308666389E-1,3.043302039E-1
1.117721429E1,-2.314648638E-1,-1.127927899E-1,-4.303692515E-1,5.015135983E-1
1.118716529E1,-3.788857237E-1,-2.528102160E-2,-7.756214619E-1,8.635868073E-1
1.119711729E1,-4.250778868E-1,7.738088250E-2,-9.006127131E-1,9.988905194E-1
1.120706829E1,-4.011885756E-1,2.622832900E-1,-1.294073024E0,1.379989054E0
1.121701929E1,-4.167897144E-1,4.777555257E-1,-1.467940858E0,1.599004181E0
1.122697029E1,-5.135064255E-1,6.278202224E-1,-1.257173585E0,1.496105779E0
1.123692229E1,-7.349422364E-1,7.939016122E-1,-1.170976124E0,1.594241181E0
1.124687329E1,-1.038741635E0,9.807669300E-1,-7.667980134E-1,1.621378163E0
1.125682429E1,-1.399355942E0,1.045726572E0,-4.182910236E-1,1.796304122E0
1.126677529E1,-1.624699447E0,1.174229661E0,-1.943976279E-1,2.014014407E0
1.127672729E1,-1.718494049E0,1.714550979E0,2.059506297E-1,2.436251735E0
1.128667829E1,-1.974482519E0,1.970780647E0,8.630091961E-1,2.920161374E0
1.129662929E1,-2.278627926E0,1.680628942E0,1.084911103E0,3.032109986E0
1.130658029E1,-2.587412807E0,1.402646463E0,9.043935227E-1,3.078968947E0
1.131653229E1,-2.743767353E0,1.242911641E0,1.116218265E0,3.212324992E0
1.132648329E1,-2.735717199E0,1.635199000E0,8.556569803E-1,3.300026247E0
1.133643429E1,-2.756510775E0,2.394477494E0,6.564086119E-2,3.651873882E0
1.134638529E1,-2.968313591E0,3.053491443E0,-8.830219495E-1,4.349071548E0
1.135633729E1,-3.284088086E0,3.412929729E0,-1.490891472E0,4.965489027E0
1.136628829E1,-3.667123396E0,3.429066290E0,-1.600389941E0,5.269491208E0
1.137623929E1,-4.004070368E0,3.296437406E0,-1.435725331E0,5.381485511E0
1.138619029E1,-4.249586767E0,3.349925981E0,-1.118231462E0,5.525525619E0
1.139614229E1,-4.544233811E0,3.625121092E0,-1.119133687E0,5.919799327E0
1.140609329E1,-5.244185870E0,4.130501204E0,-7.676002514E-1,6.719504132E0
1.141604429E1,-6.519816191E0,5.021363100E0,1.963752294E-1,8.231685962E0
1.142599629E1,-7.999932414E0,6.217582970E0,5.441055628E-1,1.014659093E1
1.143594729E1,-9.302147101E0,6.593377672E0,-8.004020349E-1,1.142992621E1
1.144589829E1,-9.713131517E0,5.958243168E0,-3.322737597E0,1.186954804E1
1.145584929E1,-8.867679098E0,4.931838720E0,-4.919757788E0,1.127664766E1
1.146580129E1,-6.844129668E0,4.687332135E0,-4.273520005E0,9.331461123E0
1.147575229E1,-3.694504153E0,4.912641141E0,-2.935165433E0,6.811651785E0
1.148570329E1,-2.695821354E0,3.797800480E0,-2.590853893E0,5.329471377E0
1.149565429E1,-2.609428743E0,2.749161994E0,-3.928386347E0,5.458867037E0
1.150560629E1,-1.526020959E0,1.998832664E0,-4.767659429E0,5.390236397E0
1.151555729E1,-6.428849888E-1,1.043469547E0,-4.277314848E0,4.449444023E0
1.152550829E1,1.510318261E-1,3.689879590E-1,-3.018687646E0,3.044903583E0
1.153545929E1,4.663797677E-2,-9.612202728E-1,-1.554394573E0,1.828185440E0
1.154541129E1,-1.499007992E0,-2.553086727E0,-4.446240324E-1,2.993821526E0
1.155536229E1,-2.431307352E0,-3.038720791E0,-4.370724995E-1,3.916134811E0
1.156531329E1,-2.928086793E0,-2.692009555E0,-1.828674742E0,4.377745884E0
1.157526429E1,-4.533189005E0,-2.671313919E0,-3.414671030E0,6.272614994E0
1.158521629E1,-6.026573145E0,-1.804432039E0,-2.329292150E0,6.708290451E0
1.159516729E1,-6.511330712E0,-2.991875823E0,-1.782115848E-1,7.168019807E0
1.160511829E1,-6.530482682E0,-4.134079115E0,-9.714505613E-1,7.789835068E0
1.161506929E1,-5.959572825E0,-3.936653726E0,-1.170522015E0,7.237670385E0
1.162502129E1,-5.077136182E0,-3.569445659E0,-2.912862106E-1,6.213139446E0
1.163497229E1,-4.001436197E0,-3.518890048E0,-1.392333144E-1,5.330428193E0
1.164492329E1,-2.830817192E0,-3.189908738E0,-1.148214814E0,4.416722879E0
1.165487429E1,-2.295660719E0,-2.772128103E0,-1.548214066E0,3.918126996E0
1.166482629E1,-2.285070827E0,-2.749609891E0,-3.988578024E-1,3.597358862E0
1.167477729E1,-2.246029553E0,-2.788016742E0,4.606629815E-1,3.609694792E0
1.168472829E1,-2.268500403E0,-2.614966641E0,5.187088029E-1,3.500457603E0
1.169467929E1,-2.538166387E0,-2.483942233E0,3.703877825E-1,3.570636461E0
1.170463129E1,-2.867330714E0,-2.438305299E0,7.132398570E-1,3.830878392E0
1.171458229E1,-2.949035905E0,-2.290310517E0,1.168634461E0,3.912549238E0
1.172453329E1,-2.655043750E0,-2.042989082E0,1.100205081E0,3.526118677E0
1.173448429E1,-2.113467911E0,-1.503045495E0,7.876217026E-1,2.710394864E0
1.174443629E1,-1.537083891E0,-8.325464451E-1,9.543772763E-1,1.991631607E0
1.175438729E1,-1.094129239E0,-8.980504632E-2,1.068343602E0,1.531842613E0
1.176433829E1,-8.615006876E-1,6.888388413E-1,1.134401937E0,1.582261084E0
1.177428929E1,-6.577892491E-1,1.449044704E0,1.011768283E0,1.885760406E0
1.178424129E1,-5.311521529E-1,2.037159993E0,5.881135350E-1,2.185868472E0
1.179419229E1,-3.938710776E-1,2.657617986E0,2.174228668E-1,2.695429556E0
1.180414329E1,-1.641655496E-1,3.175474302E0,-2.357011716E-2,3.179802339E0
1.181409429E1,2.684591923E-1,3.642497263E0,-3.874493730E-1,3.672869949E0
1.182404629E1,1.021415384E0,4.326910347E0,-5.897618651E-1,4.484781109E0
1.183399729E1,2.163939030E0,5.135289665E0,-9.711289644E-1,5.656582319E0
1.184394829E1,3.215882362E0,5.609135157E0,-1.353653812E0,6.605806175E0
1.185389929E1,3.922474520E0,5.844604286E0,-2.305319735E0,7.406733740E0
1.186385129E1,5.173287211E0,6.812994999E0,-2.881059977E0,9.026644339E0
1.187380229E1,5.780867296E0,5.906459641E0,-2.989586638E0,8.788761031E0
1.188375329E1,6.143934950E0,5.397612131E0,-3.590611410E0,8.931665225E0
1.189370429E1,7.062298640E0,4.550472205E0,-4.644091975E0,9.599502573E0
1.190365629E1,8.124277548E0,3.225966763E0,-7.618183492E0,1.159514842E1
1.191360729E1,9.374377756E0,1.358906366E0,-7.652711885E0,1.217742107E1
1.192355829E1,1.020480985E1,-7.684206158E-1,-7.161478527E0,1.249061203E1
1.193350929E1,1.079987163E1,-1.799848407E0,-6.978228543E0,1.298354170E1
1.194346129E1,1.144803782E1,-1.180517757E0,-6.609116038E0,1.327145836E1
1.195341229E1,1.212870167E1,-4.272794366E-1,-6.219706094E0,1.363718138E1
1.196336329E1,1.284126442E1,1.569416070E-1,-5.337143735E0,1.390711350E1
1.197331450E1,1.340779062E1,4.755926406E-1,-3.532080781E0,1.387337855E1
1.198326650E1,1.347255789E1,9.267754948E-1,-1.555117874E0,1.359364265E1
1.199321750E1,1.372461382E1,2.324668756E0,-2.769153807E-1,1.392285141E1
1.200316850E1,1.063781722E1,4.458893114E0,-1.489854176E0,1.163032882E1
1.201311950E1,4.525020153E0,4.732268572E0,6.357379371E-1,6.578323186E0
1.202307150E1,-1.776364381E0,2.015300177E0,6.711091479E0,7.228807236E0
1.203302250E1,-2.932927411E0,1.886551505E0,5.601992199E0,6.598746576E0
1.204297350E1,-9.631529237E-1,2.305747751E0,-8.396613371E-1,2.636127350E0
1.205292450E1,-5.949277340E-1,5.471888727E-1,-1.764347037E0,1.940689346E0
1.206287650E1,-1.486743019E0,-1.176273848E0,2.255417842E0,2.946342582E0
1.207282750E1,-2.448243958E0,-9.839554167E-1,2.970235863E0,3.972954545E0
1.208277850E1,-2.065991736E0,4.872052109E-1,-7.965112245E-1,2.267183474E0
1.209272950E1,-1.265450026E0,1.027790823E0,-2.026453156E0,2.600813361E0
1.210268050E1,-5.096871704E-1,5.681014395E-1,6.935850263E-2,7.663751425E-1
1.211263250E1,1.776503983E-1,6.076543450E-2,1.860735865E-1,2.643397088E-1
1.212258350E1,8.528196920E-1,5.943694711E-2,-1.136248487E0,1.421933473E0
1.213253450E1,1.420838613E0,2.937834102E-1,-7.497381771E-1,1.633155960E0
1.214248650E1,1.775103867E0,-7.366556168E-2,1.363418845E-1,1.781855624E0
1.215243750E1,1.956354981E0,-3.410183877E-1,7.268369722E-1,2.114689182E0
1.216238850E1,2.030036915E0,-3.399009848E-1,1.086862904E0,2.327628305E0
1.217233950E1,2.097226393E0,-2.862445951E-2,5.874639459E-1,2.178139525E0
1.218229050E1,2.222600344E0,3.519871795E-1,-2.052758245E-1,2.259642766E0
1.219224250E1,1.968913631E0,4.159036785E-1,-6.113287719E-1,2.103168948E0
1.220219350E1,1.353761255E0,3.957658678E-1,-6.814450371E-1,1.566418685E0
1.221214450E1,3.270846920E-1,3.487694567E-1,-5.007847846E-1,6.923943459E-1
1.222209550E1,-8.921266490E-1,2.113774306E-1,-2.273829774E-1,9.446022414E-1
1.223204750E1,-1.906336437E0,1.771168399E-1,-2.091174817E-1,1.925933308E0
1.224199850E1,-2.507727537E0,1.278791910E-1,-3.528163147E-1,2.535651758E0
1.225194950E1,-2.692297822E0,-1.510277331E-1,-3.105631649E-1,2.714355618E0
1.226190050E1,-2.650044088E0,-2.694040293E-1,1.052023731E-2,2.663723498E0
1.227185250E1,-1.854398105E0,1.728618211E-1,1.126372540E-1,1.865840479E0
1.228180350E1,-4.294892456E-1,4.395416325E-1,-2.388002142E-1,6.593052412E-1
1.229175450E1,5.147032774E-1,3.433830017E-1,-3.539717976E-1,7.128305431E-1
1.230170550E1,1.027601958E0,4.628363550E-2,-4.080888748E-2,1.029452925E0
1.231165750E1,9.676720905E-1,1.706398791E-1,-2.476880550E-1,1.013339339E0
1.232160850E1,7.186584717E-1,3.261904335E-1,-2.084591583E-1,8.162875832E-1
1.233155950E1,3.560103562E-1,1.800252450E-1,-1.682957304E-1,4.329848905E-1
1.234151050E1,-1.909539834E-2,8.281996250E-2,-1.796838406E-1,1.987713838E-1
1.235146250E1,-6.269845091E-2,9.779409707E-2,-1.628308495E-1,2.000216656E-1
1.236141350E1,2.396120270E-1,5.211272478E-2,-1.676442774E-1,2.970425278E-1
1.237136450E1,5.916774861E-1,-8.166513741E-2,9.890207134E-2,6.054197403E-1
1.238131550E1,8.685151537E-1,-3.004065514E-2,2.330629262E-1,8.997440418E-1
1.239126750E1,9.122862406E-1,2.733719498E-1,3.413721442E-2,9.529762626E-1
1.240121850E1,6.134266432E-1,3.395864046E-1,-1.556411862E-1,7.182167860E-1
1.241116950E1,2.817575879E-2,1.558364832E-1,-3.129592077E-1,3.507454185E-1
1.242112050E1,-4.951424407E-1,7.754168093E-2,-1.876440208E-1,5.351532747E-1
1.243107250E1,-9.836854215E-1,7.366205335E-2,3.471855191E-1,1.045753743E0
1.244102350E1,-1.410587859E0,2.878993571E-2,3.298601460E-1,1.448928806E0
1.245097450E1,-1.243757148E0,6.014095187E-2,-7.719236827E-1,1.465064828E0
1.246092550E1,-4.381708990E-1,2.240027386E-1,-1.157318490E0,1.257599718E0
1.247087750E1,2.813123225E-1,1.261507541E-1,-3.381398034E-1,4.575906054E-1
1.248082850E1,7.675281845E-1,-6.990112424E-2,1.908895178E-1,7.939927513E-1
1.249077950E1,9.617365819E-1,-7.187514424E-2,2.116247678E-1,9.873643358E-1
1.250073050E1,9.840270451E-1,5.316522360E-2,-2.925829768E-1,1.027978874E0
1.251068250E1,8.600311361E-1,2.284173864E-1,-3.862085938E-1,9.700438833E-1
1.252063350E1,4.220010088E-1,2.584159416E-1,-1.484972043E-1,5.166382390E-1
1.253058450E1,-1.449767420E-1,1.170361143E-1,-2.807657540E-1,3.369645625E-1
1.254053550E1,-3.414652611E-1,9.981840312E-2,-2.450567349E-1,4.319896312E-1
1.255048750E1,-1.584773782E-1,-7.307616234E-2,1.134068207E-1,2.081257117E-1
1.256043850E1,2.528331663E-1,-2.844155860E-1,3.243485606E-1,5.000188239E-1
1.257038950E1,6.068180470E-1,-8.515767932E-2,-8.303046227E-2,6.183639949E-1
1.258034050E1,6.087480667E-1,2.886518937E-1,-4.099997449E-1,7.886659085E-1
1.259029250E1,4.000542158E-1,6.757551116E-1,-3.216155720E-1,8.486017455E-1
1.260024350E1,1.400542635E-1,8.882487756E-1,-4.330238143E-1,9.980534594E-1
1.261019450E1,-1.850002022E-1,8.204468018E-1,-5.419350763E-1,1.000525690E0
1.262014550E1,-3.836536530E-1,6.581386203E-1,-3.416351958E-1,8.348959072E-1
1.263009750E1,-4.428277677E-1,4.159042633E-1,-3.022262049E-1,6.785377418E-1
1.264004850E1,-3.123037349E-1,2.392212868E-1,-3.924708887E-1,5.556922218E-1
1.264999950E1,-1.309709063E-1,2.733275110E-1,-4.416191483E-1,5.356199946E-1
1.265995050E1,-2.528540701E-2,3.601153940E-1,-1.829815972E-1,4.047279502E-1
1.266990150E1,3.268257335E-2,3.652030563E-1,2.053659081E-2,3.672372183E-1
1.267985350E1,3.284585685E-2,2.025873113E-1,1.309344343E-1,2.434425909E-1
1.268980450E1,1.008416659E-1,-7.987121165E-2,5.060602156E-1,5.221545689E-1
1.269975550E1,1.847017018E-1,-3.253303081E-1,1.042385473E0,1.107484538E0
1.270970650E1,2.036025341E-1,-6.519230300E-1,1.103700546E0,1.297926240E0
1.271965850E1,2.330178295E-1,-7.415275168E-1,6.980360730E-1,1.044707962E0
1.272960950E1,2.137496459E-1,-6.552196902E-1,4.800202254E-1,8.398935471E-1
1.273956050E1,1.178246114E-1,-5.829299784E-1,2.986617422E-1,6.654989369E-1
1.274951150E1,-2.931209207E-2,-5.614946705E-1,9.088912010E-3,5.623327059E-1
1.275946350E1,-1.528829084E-1,-3.969972914E-1,-2.171677820E-1,4.776419984E-1
1.276941450E1,-2.650547241E-1,-6.741137981E-2,-2.241014834E-1,3.535813566E-1
1.277936550E1,-4.074588373E-1,2.715569741E-1,-1.306689707E-1,5.067941142E-1
1.278931650E1,-4.844172585E-1,4.271086979E-1,-1.615843693E-1,6.657262415E-1
1.279926850E1,-4.891991115E-1,4.232881272E-1,2.465646587E-2,6.473766682E-1
1.280921950E1,-4.366022372E-1,2.230215758E-1,1.132957601E-1,5.031859160E-1
1.281917050E1,-2.918997297E-1,2.116750538E-2,3.295958519E-2,2.945162979E-1
1.282912150E1,-8.434564725E-2,1.323634207E-2,-4.884643357E-2,9.836342325E-2
1.283907350E1,1.206273280E-1,2.231022674E-1,-3.604012498E-1,4.406978952E-1
1.284902450E1,8.737172753E-2,2.768563056E-1,-7.206517875E-1,7.769312914E-1
1.285897550E1,-1.489114796E-1,1.461055470E-1,-7.582201481E-1,7.863963712E-1
1.286892650E1,-4.436250356E-1,7.102203548E-2,-7.322690356E-1,8.591072356E-1
1.287887850E1,-7.505301824E-1,7.910698056E-2,-5.708320892E-1,9.462572288E-1
1.288882950E1,-1.003728069E0,2.319882810E-1,-3.171682528E-1,1.077907370E0
1.289878050E1,-1.109147227E0,3.887082785E-1,-1.638424726E-1,1.186653300E0
1.290873150E1,-8.966105863E-1,4.806153989E-1,-4.195845008E-2,1.018166105E0
1.291868350E1,-5.686389448E-1,5.681283367E-1,-2.620277667E-1,8.454458037E-1
1.292863450E1,-2.439977311E-1,5.267043221E-1,-7.783708227E-1,9.709858255E-1
1.293858550E1,1.079951495E-1,2.235589349E-1,-9.422267622E-1,9.743884344E-1
1.294853650E1,4.967975682E-1,-2.285337460E-1,-6.050248522E-1,8.155308508E-1
1.295848850E1,9.015542610E-1,-6.004254323E-1,-1.463452645E-1,1.093036011E0
1.296843950E1,1.207483508E0,-8.121256292E-1,2.004092600E-1,1.468920805E0
1.297839054E1,1.302961522E0,-7.450329226E-1,2.825000381E-1,1.527281590E0
1.298834154E1,1.064311070E0,-4.322729588E-1,2.473074013E-1,1.175065494E0
1.299829354E1,6.415898305E-1,-1.408073848E-1,5.083890885E-1,8.306164552E-1
1.300824454E1,2.530872278E-1,-7.354627848E-3,6.771707225E-1,7.229574142E-1
1.301819554E1,-2.978118494E-2,5.284128785E-3,3.335742609E-1,3.349427242E-1
1.302814654E1,-7.438608482E-2,-2.029030609E-1,-4.857866764E-2,2.215013063E-1
1.303809754E1,1.432344179E-1,-4.665475827E-1,-5.014111675E-2,4.906086801E-1
1.304804954E1,3.802141745E-1,-5.662396860E-1,1.222430599E-1,6.929167094E-1
1.305800054E1,5.308735330E-1,-2.719709569E-1,2.053214693E-1,6.308342217E-1
1.306795154E1,3.642765650E-1,2.877081531E-1,-1.236638602E-1,4.803812522E-1
1.307790254E1,-1.269070914E-1,7.387272853E-1,-5.926473199E-1,9.555387264E-1
1.308785454E1,-5.645132956E-1,8.177991825E-1,-8.733453923E-1,1.322952357E0
1.309780554E1,-6.841324174E-1,6.144534874E-1,-8.620900869E-1,1.260471963E0
1.310775654E1,-4.512787485E-1,1.670689845E-1,-6.707538418E-1,8.255151548E-1
1.311770754E1,7.991828173E-3,-2.676761770E-1,-5.866002756E-1,6.448366370E-1
1.312765954E1,3.955995145E-1,-4.632374740E-1,-4.891575962E-1,7.812573757E-1
1.313761054E1,6.995914324E-1,-3.647574985E-1,2.007699966E-2,7.892270211E-1
1.314756154E1,8.272726952E-1,-7.551854432E-2,2.952604169E-1,8.816245666E-1
1.315751254E1,5.482352319E-1,1.940521306E-1,2.070389427E-1,6.173193847E-1
1.316746454E1,1.051387846E-2,4.620294392E-1,4.438391899E-1,6.407612432E-1
1.317741554E1,-4.628385477E-1,6.549875557E-1,5.917082570E-1,9.966678889E-1
1.318736654E1,-7.312581982E-1,5.614414608E-1,4.312018950E-1,1.017786884E0
1.319731754E1,-6.598223260E-1,2.581990099E-1,3.950811589E-1,8.112467890E-1
1.320726954E1,-4.759285632E-1,-1.125185555E-1,3.466703063E-1,5.994570242E-1
1.321722054E1,-3.825125688E-1,-4.365735859E-1,4.459437490E-1,7.319687073E-1
1.322717154E1,-2.810765335E-1,-4.808644903E-1,6.844733101E-1,8.824615504E-1
1.323712254E1,-2.428952385E-1,-3.040031737E-1,6.006007026E-1,7.156376391E-1
1.324707454E1,-3.692275487E-1,-2.013401002E-1,3.704613112E-1,5.604537463E-1
1.325702554E1,-5.250489753E-1,-1.896246189E-1,2.881407009E-1,6.282188998E-1
1.326697654E1,-6.022310525E-1,-1.250503081E-1,5.570904015E-1,8.298611544E-1
1.327692754E1,-6.631830132E-1,-1.657434207E-1,2.783857910E-1,7.380929746E-1
1.328687954E1,-4.762011896E-1,-1.686880785E-1,2.033354625E-2,5.056052748E-1
1.329683054E1,-9.664716572E-2,-1.165408552E-2,5.141325161E-2,1.100900304E-1
1.330678154E1,1.695349015E-1,1.174208611E-1,3.282509923E-2,2.088234388E-1
1.331673254E1,2.550976467E-1,5.937905967E-2,-8.585466743E-3,2.620579942E-1
1.332668454E1,1.301900107E-1,-1.301210135E-1,-9.152120411E-2,2.055651912E-1
1.333663554E1,-8.087620184E-2,-3.781955695E-1,-2.310696834E-1,4.505175329E-1
1.334658654E1,-2.551601388E-1,-6.097084719E-1,-3.351676637E-1,7.410725200E-1
1.335653754E1,-2.020564572E-1,-7.561706990E-1,-4.616847458E-1,9.087209376E-1
1.336648854E1,2.547083683E-2,-6.603933066E-1,-7.447920173E-1,9.957325103E-1
1.337644054E1,2.812969735E-1,-4.998433828E-1,-9.554005390E-1,1.114343567E0
1.338639154E1,4.635593632E-1,-5.317978317E-1,-1.052595297E0,1.267143668E0
1.339634254E1,6.119538027E-1,-6.497695005E-1,-1.009450154E0,1.347470769E0
1.340629354E1,7.185253014E-1,-6.945813918E-1,-9.096766283E-1,1.351382065E0
1.341624554E1,7.651627665E-1,-2.723317301E-1,-1.085959070E0,1.356077333E0
1.342619654E1,3.464454078E-1,3.312014973E-1,-1.412631899E0,1.491726428E0
1.343614754E1,-2.477881155E-1,-1.771244413E-1,-1.687406011E0,1.714675207E0
1.344609854E1,-2.276993483E-1,-7.633809006E-1,-1.624146593E0,1.808991307E0
1.345605054E1,2.543977350E-1,-8.606838316E-1,-8.743248010E-1,1.252971956E0
1.346600154E1,8.112098090E-1,-6.232482845E-1,-8.898398030E-1,1.355844627E0
1.347595254E1,8.776577139E-1,-5.494131535E-1,-7.060419345E-1,1.253249013E0
1.348590354E1,7.170543612E-1,-6.099604869E-1,-1.405606323E-1,9.518277385E-1
1.349585554E1,6.826022742E-1,-7.755220592E-1,-3.191679275E-1,1.081317944E0
1.350580654E1,6.876425010E-1,-1.258442430E0,-4.465134139E-1,1.501966640E0
1.351575754E1,7.548626769E-1,-1.735077630E0,-2.927782738E-1,1.914688267E0
1.352570854E1,8.570528568E-1,-1.526367699E0,-1.527740040E-1,1.757178946E0
1.353566054E1,7.605593267E-1,-7.333870232E-1,3.128288148E-1,1.101893317E0
1.354561154E1,5.452147796E-1,6.186640674E-1,1.517022533E0,1.726662025E0
1.355556254E1,1.331045553E-1,2.089379722E0,3.481545343E0,4.062558605E0
1.356551354E1,-7.368889207E-1,2.460915313E0,4.742213516E0,5.393301261E0
1.357546554E1,-1.765516188E0,2.248340372E0,3.558668656E0,4.564669149E0
1.358541654E1,-2.249038822E0,1.949624251E0,1.768099049E0,3.461991420E0
1.359536754E1,-2.555972621E0,1.252549022E0,1.821977779E-1,2.852204607E0
1.360531854E1,-2.716833324E0,3.271353436E-1,-9.736438519E-1,2.904510835E0
1.361526954E1,-2.296573177E0,-1.431041712E-1,-1.575017410E0,2.788441680E0
1.362522154E1,-1.494953094E0,-1.209098947E-1,-1.663274406E0,2.239639638E0
1.363517254E1,-5.598238286E-1,2.951697850E-1,-1.214630413E0,1.369618546E0
1.364512354E1,2.560151479E-1,7.891688758E-1,-4.831264856E-1,9.600742011E-1
1.365507454E1,6.933051639E-1,8.564551252E-1,7.154799253E-2,1.104222146E0
1.366502654E1,7.397235046E-1,4.657570392E-1,3.689096063E-1,9.487964906E-1
1.367497754E1,6.525975794E-1,-4.287997127E-2,5.277003953E-1,8.403511170E-1
1.368492854E1,5.651954464E-1,-4.103634417E-1,6.642132926E-1,9.638585710E-1
1.369487954E1,5.242155278E-1,-5.519467521E-1,8.305303252E-1,1.126600088E0
1.370483154E1,5.138477201E-1,-6.232114470E-1,7.913361463E-1,1.130771809E0
1.371478254E1,5.307276450E-1,-5.830586171E-1,7.986033583E-1,1.122228367E0
1.372473354E1,5.741010847E-1,-3.879919946E-1,6.905359957E-1,9.782483349E-1
1.373468454E1,5.736512146E-1,-2.398025000E-1,4.957503319E-1,7.952039654E-1
1.374463654E1,4.958059901E-1,-1.463540536E-1,4.361479086E-1,6.763638717E-1
1.375458754E1,3.443854337E-1,-9.373729885E-2,4.166883749E-1,5.486503531E-1
1.376453854E1,1.661115395E-1,-1.015076637E-1,2.637027016E-1,3.277742580E-1
1.377448954E1,4.198074259E-2,-1.084360296E-1,1.431287295E-1,1.844087537E-1
1.378444154E1,-6.071211521E-2,-7.557935536E-2,8.615901500E-2,1.296980175E-1
1.379439254E1,-1.552283728E-1,-8.402448893E-4,5.091404557E-2,1.633670523E-1
1.380434354E1,-3.205730500E-1,6.941229701E-2,1.052285394E-1,3.444679852E-1
1.381429454E1,-4.829912322E-1,1.039822054E-1,1.307513434E-1,5.110662807E-1
1.382424654E1,-6.018945453E-1,1.361448151E-1,2.217267099E-1,6.557249333E-1
1.383419754E1,-6.866312250E-1,1.950099045E-1,2.787367702E-3,7.137920366E-1
1.384414854E1,-7.022329120E-1,8.176863313E-2,-4.333371520E-2,7.083043011E-1
1.385409954E1,-5.316140098E-1,-1.059234810E-1,1.765566766E-3,5.420667454E-1
1.386405054E1,-2.570340253E-1,-2.098390281E-1,-2.655337572E-2,3.328723323E-1
1.387400254E1,8.435558751E-3,-2.433008891E-1,-4.576732635E-2,2.477117871E-1
1.388395354E1,1.997543718E-1,-2.674762022E-1,-2.394025505E-2,3.346915948E-1
1.389390454E1,2.582070498E-1,-3.366926175E-1,-3.328644454E-2,4.256063753E-1
1.390385554E1,2.885388232E-1,-1.722671592E-1,3.190708637E-2,3.375628664E-1
1.391380754E1,2.883940315E-1,3.849339008E-2,-5.314358890E-2,2.957652778E-1
1.392375854E1,2.722816999E-1,2.146074325E-1,-2.899002743E-1,4.519245990E-1
1.393370954E1,2.764321632E-1,3.719308627E-1,-3.756602168E-1,5.965466503E-1
1.394366054E1,2.550804705E-1,5.014636463E-1,-4.593707103E-1,7.263286339E-1
1.395361254E1,2.078508652E-1,5.414129931E-1,-6.833278406E-1,8.962516103E-1
1.396356354E1,1.561486880E-1,4.418957216E-1,-7.116812816E-1,8.521411198E-1
1.397351438E1,8.857559614E-2,3.367592758E-1,-4.268789023E-1,5.508884128E-1
1.398346538E1,5.924519498E-2,2.354369688E-1,-2.967672443E-1,3.834206003E-1
1.399341738E1,-1.022469711E-2,1.814122045E-1,-8.487642825E-2,2.005466042E-1
1.400336838E1,-1.516457472E-1,1.069865048E-1,-7.156875014E-2,1.989085993E-1
1.401331937E1,-3.591325136E-1,-7.748554766E-2,2.989523488E-1,4.736588216E-1
1.402327038E1,-5.327196817E-1,-2.420174253E-1,3.360473773E-1,6.747522014E-1
1.403322237E1,-7.344412762E-1,-2.396516418E-1,4.774941552E-1,9.082056848E-1
1.404317338E1,-7.372934749E-1,-1.071724463E-1,6.530553433E-1,9.907415823E-1
1.405312437E1,-1.222969273E-1,4.823426664E-2,5.812980205E-1,5.959785831E-1
1.406307538E1,-1.322890515E-1,-2.904230154E-1,9.465993100E-1,9.989475335E-1
1.407302638E1,-1.258335426E-1,-5.559988725E-1,7.898810667E-1,9.741051926E-1
1.408297838E1,2.224584159E-2,-4.577925467E-1,7.416967937E-1,8.718847557E-1
1.409292938E1,2.787444446E-2,-2.211890584E-1,8.876643464E-1,9.152319794E-1
1.410288037E1,-2.114255970E-1,-1.422592485E-1,6.398856595E-1,6.887613042E-1
1.411283138E1,-4.053813216E-1,-6.333236217E-2,2.981653136E-1,5.071957790E-1
1.412278337E1,-5.734925723E-1,-7.349423826E-2,1.770226997E-1,6.046752598E-1
1.413273438E1,-3.556947893E-1,2.775556326E-2,-6.841534674E-3,3.568416470E-1
1.414268537E1,2.251478610E-1,3.106175441E-1,-1.663889533E-1,4.181627695E-1
1.415263638E1,5.808367483E-1,3.711145914E-1,-3.335152406E-1,7.657217404E-1
1.416258838E1,9.098854470E-1,2.054448456E-1,-6.951035482E-1,1.163300500E0
1.417253938E1,7.923089037E-1,2.393312144E-1,-3.891994447E-1,9.146086796E-1
1.418249038E1,5.827578510E-1,1.325470233E-1,-2.791972384E-1,6.596412087E-1
1.419244137E1,2.681030969E-1,8.729074359E-2,-4.385753801E-1,5.213897856E-1
1.420239338E1,1.835435512E-2,1.769770914E-1,-4.482671401E-1,4.822874684E-1
1.421234437E1,-1.616548648E-1,2.749477744E-1,-3.194965410E-1,4.514494586E-1
1.422229538E1,-1.680592288E-1,2.529663366E-1,-2.166609746E-1,3.730654765E-1
1.423224637E1,-1.277505706E-1,1.583168721E-1,-8.563832045E-3,2.036118354E-1
1.424219838E1,-1.060023088E-1,1.134470934E-1,1.433880535E-1,2.113453722E-1
1.425214938E1,-3.356387300E-1,1.111409515E-1,4.232828647E-1,5.515197655E-1
1.426210038E1,-6.593839310E-1,-1.425241274E-1,5.904009658E-1,8.964784413E-1
1.427205138E1,-5.931102001E-1,-4.277630013E-1,-2.935009897E-3,7.312793646E-1
1.428200237E1,-2.462728644E-1,-2.217638397E-1,-3.176923826E-1,4.590838424E-1
1.429195438E1,-9.311150059E-2,5.207881093E-2,-1.732582623E-1,2.034708322E-1
1.430190537E1,-1.001964073E-1,4.699582636E-2,-2.488627607E-1,2.723611598E-1
1.431185638E1,-3.455064911E-3,4.527148247E-2,-1.227681398E-1,1.308948462E-1
1.432180737E1,4.307132140E-3,2.146512866E-3,3.130339059E-1,3.130708948E-1
1.433175938E1,3.053898409E-2,-1.805357069E-1,3.857285374E-1,4.269804159E-1
1.434171038E1,1.705335877E-1,-1.937018824E-1,2.416800410E-1,3.535694641E-1
1.435166138E1,1.767867646E-1,-1.480140781E-1,4.171839264E-1,4.766593709E-1
1.436161238E1,1.763927719E-2,-1.281376380E-1,2.825810221E-1,3.107771427E-1
1.437156438E1,-2.749427495E-2,-1.115373927E-1,2.790165594E-1,3.017395658E-1
1.438151538E1,-5.523922185E-2,-1.835405910E-1,4.714914036E-1,5.089623403E-1
1.439146637E1,-1.130959132E-1,-7.747560740E-2,3.830604529E-1,4.068518968E-1
1.440141738E1,1.451957476E-1,2.165791136E-1,1.787654623E-1,3.161414369E-1
1.441136937E1,-1.588785703E-1,8.019982517E-2,6.733828962E-2,1.902862509E-1
1.442132038E1,-1.653005307E-1,1.238048512E-1,-2.886252889E-1,3.549034573E-1
1.443127138E1,-7.017008702E-2,8.313395798E-2,-3.055623338E-1,3.243507914E-1
1.444122238E1,7.108116545E-2,2.598385692E-2,-5.317604095E-2,9.249532006E-2
1.445117438E1,6.834602983E-2,4.290219069E-2,4.602431148E-2,9.289787407E-2
1.446112538E1,3.272120152E-3,9.700647712E-2,2.071083784E-3,9.708374097E-2
1.447107638E1,-8.348928597E-2,1.767554820E-2,1.228231037E-1,1.495606923E-1
1.448102737E1,-1.430467862E-1,-7.490049362E-2,9.741051972E-2,1.885769772E-1
1.449097938E1,-1.651218982E-1,6.892697811E-2,7.859447211E-2,1.954309613E-1
1.450093037E1,-7.480417902E-2,1.717204446E-1,-7.727446318E-2,2.026201346E-1
1.451088138E1,1.236720737E-1,8.741119623E-2,-3.000525025E-1,3.361056430E-1
1.452083238E1,3.551681014E-1,3.839983463E-2,-1.658615345E-1,3.938641595E-1
1.453078338E1,3.894525560E-1,5.142275333E-2,-4.796061695E-2,3.957496857E-1
1.454073538E1,1.449171826E-1,-3.102380598E-1,-1.585589468E-1,3.773454427E-1
1.455068638E1,1.810274029E-1,-2.388798094E-1,1.277751106E-1,3.258235148E-1
1.456063738E1,1.525658432E-1,3.578753257E-1,1.921374598E-1,4.338984774E-1
1.457058837E1,-4.387489328E-2,2.407029712E-1,-1.393812490E-1,2.815849058E-1
1.458054038E1,-4.467108306E-2,1.315646911E-1,-2.305314472E-1,2.691644883E-1
1.459049137E1,-9.164624317E-2,-1.792037112E-1,-2.525517690E-1,3.229479834E-1
1.460044238E1,-4.203458083E-1,-4.524511153E-1,-5.192912221E-3,6.175998515E-1
1.461039338E1,-9.510182885E-2,-3.935000718E-2,2.698975343E-1,2.888554308E-1
1.462034538E1,7.372574414E-1,6.490719277E-1,1.020067236E-1,9.875465933E-1
1.463029638E1,5.731763110E-1,2.814498782E-1,-9.289588451E-2,6.452710770E-1
1.464024738E1,-3.774425212E-1,-2.100775945E-1,-4.107581288E-1,5.960853067E-1
1.465019838E1,-2.483970299E0,-9.640070558E-2,-2.108412409E-1,2.494765635E0
1.466015037E1,-9.533806184E-1,3.527525800E-1,5.231088692E-1,1.143246201E0
1.467010138E1,5.307595854E-1,-2.038912404E-1,3.181025648E-1,6.515110261E-1
1.468005237E1,1.936314417E-1,-5.086691701E-1,-4.747424555E-1,7.222311672E-1
1.469000338E1,-6.439012349E-2,4.548771250E-1,-2.726799318E-1,5.342411741E-1
1.469995538E1,2.078561642E-1,1.252587613E0,4.154432103E-1,1.335953957E0
1.470990638E1,2.789633863E-1,1.054702633E0,1.503436089E-1,1.101281715E0
1.471985738E1,2.673737115E-1,8.351554728E-1,-1.690137684E-3,8.769128930E-1
1.472980838E1,4.705635235E-1,1.126720449E0,3.811048517E-1,1.279128574E0
1.473976038E1,3.925455869E-1,8.597529548E-1,4.423140898E-1,1.043507995E0
1.474971137E1,1.201355680E-1,2.985301799E-1,4.794556037E-1,5.774344109E-1
1.475966238E1,5.383468228E-1,6.981581336E-1,4.196280625E-1,9.763860876E-1
1.476961337E1,1.150438072E0,2.102820132E0,-2.072405255E-1,2.405890459E0
1.477956538E1,5.096483960E-1,7.582581550E-1,4.704377353E-1,1.027622781E0
1.478951638E1,4.080916522E-1,-3.641850561E-1,8.977297434E-1,1.051231775E0
1.479946738E1,3.066666535E-1,-2.815042573E-1,6.630546668E-1,7.828988277E-1
1.480941838E1,3.416096874E-1,6.521487325E-1,8.609323382E-1,1.132784021E0
1.481937038E1,3.572669960E-1,7.073370928E-1,6.795186719E-1,1.043892281E0
1.482932138E1,1.765793346E-1,8.586115783E-1,1.000543383E-1,8.822726191E-1
1.483927237E1,2.019657157E-1,5.435168213E-1,7.220554116E-1,9.260478944E-1
1.484922338E1,-5.935503858E-1,-2.974344116E-1,2.956527650E-2,6.645625593E-1
1.485917537E1,-7.934250641E-1,1.498945427E0,-6.111802161E-3,1.695994717E0
1.486912638E1,-8.044559826E-1,2.883825710E0,8.570354614E-1,3.114178854E0
1.487907738E1,-1.193388429E0,3.412035690E0,-4.218386024E-1,3.639245979E0
1.488902838E1,-2.767687435E-1,3.574487713E0,4.422582489E-1,3.612361514E0
1.489897938E1,-7.303944913E-1,1.246679587E0,-1.478088409E-1,1.452423340E0
1.490893138E1,-2.577166694E-1,4.524826902E-1,5.823475957E-1,7.812087998E-1
1.491888238E1,9.608618019E-2,8.484654897E-1,8.925476485E-1,1.235219635E0
1.492883337E1,9.473498915E-2,4.566991174E-1,-3.770065382E-1,5.997355516E-1
1.493878438E1,4.722831531E-1,1.133274009E0,2.778988642E-1,1.258804645E0
1.494873637E1,3.320375761E-1,1.103431574E0,9.417744800E-2,1.156148599E0
1.495868738E1,2.039863124E-1,1.813679411E0,3.939970851E-2,1.825539854E0
1.496863838E1,1.093074657E-1,1.637289380E0,-2.572156544E-1,1.660970959E0
1.497858938E1,-7.924025597E-3,2.211126353E0,3.600297323E-1,2.240259795E0
1.498854138E1,-3.101526539E-1,1.726044851E0,-4.107014108E-1,1.801138847E0
1.499849238E1,-5.674976414E-1,1.139430542E0,2.905651027E-1,1.305673624E0
1.500844338E1,9.643232622E-2,1.145901071E0,7.406806938E-1,1.367843685E0
1.501839437E1,3.562339026E-1,1.211942448E0,8.624021821E-1,1.529524310E0
1.502834638E1,8.090614689E-1,4.315876651E-1,-1.020072498E0,1.371639995E0
1.503829737E1,1.240271038E0,5.687639290E-1,2.106844770E0,2.510091541E0
1.504824838E1,1.309352383E0,1.887463671E-1,1.060336425E0,1.695388507E0
1.505819938E1,1.130111542E0,-2.541609228E-2,4.074010961E-1,1.201571358E0
1.506815138E1,1.190951090E0,4.687285942E-1,1.916824733E0,2.304840136E0
1.507810238E1,8.786122718E-1,-2.249739611E-1,-8.543512970E-4,9.069583989E-1
1.508805338E1,9.998983618E-1,5.577682400E-1,1.025358235E0,1.536965079E0
1.509800438E1,1.411574869E0,2.187652121E0,-3.782417625E-1,2.630861502E0
1.510795637E1,4.178803298E-1,7.155997932E-1,2.936590399E0,3.051273538E0
1.511790738E1,-1.552543929E0,-3.517781416E0,3.248177996E0,5.033471867E0
1.512785837E1,1.210407262E-1,-1.174931327E0,2.155104180E0,2.457557427E0
1.513780938E1,-2.628528088E-2,4.483650810E-1,5.032593262E-1,6.745310306E-1
1.514776137E1,4.631382175E-1,8.906303465E-2,-4.109199505E-1,6.255273282E-1
1.515771238E1,5.345463154E-1,-5.086112827E-1,-1.047405893E-1,7.452488116E-1
1.516766338E1,5.313196756E-1,-6.071953386E-1,1.802575256E-1,8.267282216E-1
1.517761438E1,6.774649836E-1,-4.660002834E-1,1.636903171E-1,8.383970348E-1
1.518756638E1,7.829795980E-1,-5.468374550E-1,4.803685002E-1,1.069037955E0
1.519751737E1,8.851896586E-1,-6.879079646E-1,5.401915097E-1,1.244421539E0
1.520746838E1,8.388982755E-1,-7.105706030E-1,2.448685277E-1,1.126330988E0
1.521741937E1,8.229727989E-1,-6.622094518E-1,1.844150421E-1,1.072294033E0
1.522737138E1,7.959256259E-1,-6.732133269E-1,2.495533168E-2,1.042754311E0
1.523732237E1,6.276120615E-1,-7.290051198E-1,1.072054830E-1,9.679041172E-1
1.524727338E1,5.767693520E-1,-6.684373212E-1,4.949708980E-1,1.012159833E0
1.525722438E1,4.332012042E-1,-6.306181151E-1,9.649148360E-1,1.231423214E0
1.526717538E1,-6.978944242E-3,-7.324766117E-1,1.317807164E0,1.507708996E0
1.527712738E1,-2.091104650E-1,-7.148379010E-1,1.519681993E0,1.692381095E0
1.528707837E1,-1.867951512E-1,-3.653334492E-1,1.011487909E0,1.091544203E0
1.529702938E1,-5.811196804E-2,7.235344648E-3,7.021085125E-1,7.045464601E-1
1.530698037E1,-3.275610209E-2,-2.826222450E-1,7.451065975E-1,7.975789223E-1
1.531693238E1,7.571939617E-2,-7.094333196E-1,7.598567837E-1,1.042310603E0
1.532688337E1,7.702888012E-2,-9.449199897E-1,7.012717760E-1,1.179232521E0
1.533683438E1,-1.179120272E-2,-1.064676229E0,4.068627137E-1,1.139829712E0
1.534678538E1,-2.583016285E-1,-1.065360353E0,6.237219089E-1,1.261245984E0
1.535673738E1,-3.145188063E-1,-9.646865022E-1,8.008656460E-1,1.292643768E0
1.536668838E1,-3.184911123E-1,-7.113143688E-1,1.404980671E-1,7.919245083E-1
1.537663937E1,-4.136606866E-1,-5.087253034E-1,-3.891754711E-1,7.624789474E-1
1.538659038E1,-4.109659973E-1,-6.853299272E-1,-8.990912676E-2,8.041478789E-1
1.539654237E1,-4.548747861E-1,-9.305060184E-1,2.766493142E-1,1.072048210E0
1.540649338E1,-4.142547637E-1,-9.867398608E-1,2.064610916E-1,1.089903089E0
1.541644437E1,-4.435765037E-1,-1.024672503E0,1.049569362E-1,1.121485538E0
1.542639538E1,-5.126049310E-1,-1.054379282E0,-1.065964955E-1,1.177218034E0
1.543634738E1,-4.747591200E-1,-9.764569473E-1,-2.864738059E-1,1.122912122E0
1.544629838E1,-4.639449871E-1,-8.823974669E-1,-1.313892746E-1,1.005551283E0
1.545624938E1,-5.621095052E-1,-8.144434655E-1,-1.260145140E-1,9.975795267E-1
1.546620037E1,-5.918832350E-1,-4.860100400E-1,-3.262044668E-1,8.324307041E-1
1.547615238E1,-6.491868255E-1,-6.235529244E-2,-3.121705645E-1,7.230367751E-1
1.548610337E1,-7.003075701E-1,-1.207333088E-1,-3.877130824E-1,8.095237235E-1
1.549605438E1,-5.924588934E-1,-3.354723036E-1,-6.427013862E-1,9.362768173E-1
1.550600537E1,-6.928491542E-1,-5.260991353E-1,-5.710215390E-1,1.040618013E0
1.551595738E1,-6.965384549E-1,-6.191862237E-1,-3.066578096E-1,9.811199779E-1
1.552590838E1,-5.079794911E-1,-4.603881258E-1,-3.056643677E-1,7.506204736E-1
1.553585938E1,-4.915572935E-1,-2.499906886E-1,-7.496364355E-1,9.306334953E-1
1.554581038E1,-5.174703991E-1,-1.242153257E-1,-8.074770927E-1,9.670699646E-1
1.555576238E1,-5.512111723E-1,-1.299602151E-1,-7.397242355E-1,9.316197500E-1
1.556571338E1,-5.648793313E-1,-3.214863485E-1,-4.483469546E-1,7.895930109E-1
1.557566437E1,-4.785066006E-1,-5.049614507E-1,-3.986713493E-1,8.018063845E-1
1.558561538E1,-4.155449519E-1,-4.434867489E-1,-5.982941222E-1,8.528270400E-1
1.559556637E1,-5.031191392E-1,-4.606307852E-1,-5.274621212E-1,8.622794662E-1
1.560551838E1,-5.462750991E-1,-6.524399239E-1,-3.240860206E-1,9.105636095E-1
1.561546938E1,-4.782673033E-1,-7.519314677E-1,-3.348478210E-1,9.519787858E-1
1.562542038E1,-4.611808620E-1,-7.939571607E-1,-5.727628398E-1,1.082179759E0
1.563537138E1,-4.969130507E-1,-7.411071020E-1,-7.174954605E-1,1.144972512E0
1.564532338E1,-5.127992047E-1,-6.588046181E-1,-7.286788452E-1,1.108133299E0
1.565527438E1,-5.216860954E-1,-6.310174799E-1,-2.559618652E-1,8.578204466E-1
1.566522537E1,-4.872212908E-1,-5.688270789E-1,-1.683582956E-1,7.676544454E-1
1.567517638E1,-3.724921954E-1,-4.618937838E-1,-2.693367863E-1,6.516430062E-1
1.568512837E1,-2.499509275E-1,-4.447520864E-1,-5.550311583E-1,7.538829294E-1
1.569507938E1,-2.167970686E-1,-4.111890686E-1,-8.534993577E-1,9.718737432E-1
1.570503038E1,-1.845803721E-1,-4.183139008E-1,-8.804877663E-1,9.921265746E-1
1.571498138E1,-1.834767102E-1,-5.938087231E-1,-8.214361507E-1,1.030063033E0
1.572493338E1,-3.076866272E-1,-7.832859921E-1,-6.342673624E-1,1.053804106E0
1.573488438E1,-3.818815081E-1,-8.712918502E-1,-3.185563087E-1,1.003225347E0
1.574483538E1,-3.541484566E-1,-8.386538619E-1,-2.534270972E-1,9.449797474E-1
1.575478637E1,-4.266529074E-1,-7.763640583E-1,-6.662843764E-2,8.883767236E-1
1.576473838E1,-3.553538601E-1,-6.125952423E-1,1.330756116E-1,7.205958750E-1
1.577468937E1,1.735202175E-1,2.473114944E-1,-3.351811123E-1,4.512411984E-1
1.578464038E1,8.762713391E-1,2.805616862E-1,-9.231215698E-1,1.303349436E0
1.579459138E1,1.902794924E0,-2.216223371E-1,-5.258541369E-1,1.986521472E0
1.580454338E1,1.956887224E0,-1.334040497E0,4.565903592E-1,2.411959040E0
1.581449438E1,5.430372034E-1,-6.189312851E-1,-1.638459992E-1,8.395301373E-1
1.582444538E1,1.190007788E0,7.722990739E-1,-7.554532456E-1,1.607256669E0
1.583439638E1,1.094719077E0,4.347819990E-1,-1.696616984E0,2.065418707E0
1.584434837E1,2.940285547E-1,6.505144358E-1,-4.121807563E-1,8.243268757E-1
1.585429938E1,-6.273346111E-2,4.646688724E-1,1.053336723E0,1.152983478E0
1.586425037E1,-4.109237511E-1,-6.898603499E-2,9.735836256E-1,1.059000698E0
1.587420138E1,-2.471420713E-1,-5.580325341E-1,2.688760257E-1,6.669136599E-1
1.588415238E1,-2.201839221E-1,-6.649360085E-1,-3.610942179E-1,7.880418067E-1
1.589410438E1,-2.950847080E-1,-1.046631721E0,-8.090499938E-1,1.355387338E0
1.590405538E1,-3.271660414E-1,-6.267215306E-1,-5.364030987E-1,8.874377611E-1
1.591400638E1,-5.746801418E-1,-2.526798230E-1,-5.576477873E-1,8.396876878E-1
1.592395738E1,-6.127645192E-1,-3.076474509E-1,-3.017870790E-1,7.491346681E-1
1.593390937E1,-6.125607437E-1,-1.982925314E-1,-2.260562807E-1,6.823870125E-1
1.594386038E1,-6.208439094E-1,-2.055629593E-1,2.885425508E-1,7.148147268E-1
1.595381137E1,-2.640076339E-1,4.259404242E-2,1.305581514E0,1.332688025E0
1.596376238E1,-1.593538758E-1,1.741821223E-1,1.260481939E0,1.282399231E0
1.597371438E1,-8.479193598E-2,-1.696598858E-2,-4.546490836E-1,4.627994235E-1
1.598366550E1,1.310355181E-1,-2.396674293E-1,-4.303363609E-1,5.097059615E-1
1.599361650E1,-2.497512451E-1,-8.356431305E-2,-2.873058647E-1,3.897477886E-1
1.600356750E1,-8.317643800E-1,5.678435773E-2,-1.679875821E0,1.875377088E0
1.601351950E1,-6.419599593E-2,4.110610145E-1,-1.144873130E0,1.218124283E0
1.602347050E1,7.614273459E-2,3.349568716E-1,-1.097396663E0,1.149901412E0
1.603342150E1,-2.384880459E-1,2.211209384E-1,-1.030111583E0,1.080231869E0
1.604337250E1,-6.669854575E-1,-1.335697013E-1,-3.496968251E-1,7.648518387E-1
1.605332450E1,-1.565809654E0,-1.773831806E-1,-4.302357888E-1,1.633501606E0
1.606327550E1,-2.671375315E0,-1.308209252E-1,2.020294869E-1,2.682196134E0
1.607322650E1,-1.836332986E0,-6.405496109E-1,1.067120950E0,2.218370970E0
1.608317750E1,1.868186863E-1,8.957147929E-1,1.992546322E0,2.192589122E0
1.609312950E1,7.517390943E-1,1.058979287E0,1.673079017E0,2.117957080E0
1.610308050E1,1.447306180E0,1.232709711E0,1.148638152E0,2.221179421E0
1.611303150E1,2.260804297E0,1.304038433E0,1.500369809E0,3.010458747E0
1.612298250E1,2.917216235E0,1.070794755E0,1.471438955E0,3.438296754E0
1.613293450E1,3.362568538E0,8.416461745E-1,8.687863183E-1,3.573517192E0
1.614288550E1,3.717871966E0,6.398649019E-1,2.826023644E-1,3.783102317E0
1.615283650E1,4.181128443E0,3.952115518E-1,-5.845800626E-1,4.240254837E0
1.616278750E1,4.208376468E0,1.292603034E-1,-1.495949898E0,4.468221886E0
1.617273950E1,3.407711089E0,-2.137122238E-1,-2.060993829E0,3.988215559E0
1.618269050E1,1.138495572E0,-6.986498845E-1,-1.914950262E0,2.334805845E0
