loggingTime(txt),loggingSample(N),locationTimestamp_since1970(s),locationLatitude(WGS84),locationLongitude(WGS84),locationAltitude(m),locationSpeed(m/s),locationSpeedAccuracy(m/s),locationCourse(°),locationCourseAccuracy(°),locationVerticalAccuracy(m),locationHorizontalAccuracy(m),locationFloor(Z),locationHeadingTimestamp_since1970(s),locationHeadingX(µT),locationHeadingY(µT),locationHeadingZ(µT),locationTrueHeading(°),locationMagneticHeading(°),locationHeadingAccuracy(°),accelerometerTimestamp_sinceReboot(s),accelerometerAccelerationX(G),accelerometerAccelerationY(G),accelerometerAccelerationZ(G),gyroTimestamp_sinceReboot(s),gyroRotationX(rad/s),gyroRotationY(rad/s),gyroRotationZ(rad/s),magnetometerTimestamp_sinceReboot(s),magnetometerX(µT),magnetometerY(µT),magnetometerZ(µT),motionTimestamp_sinceReboot(s),motionYaw(rad),motionRoll(rad),motionPitch(rad),motionRotationRateX(rad/s),motionRotationRateY(rad/s),motionRotationRateZ(rad/s),motionUserAccelerationX(G),motionUserAccelerationY(G),motionUserAccelerationZ(G),motionAttitudeReferenceFrame(txt),motionQuaternionX(R),motionQuaternionY(R),motionQuaternionZ(R),motionQuaternionW(R),motionGravityX(G),motionGravityY(G),motionGravityZ(G),motionMagneticFieldX(µT),motionMagneticFieldY(µT),motionMagneticFieldZ(µT),motionHeading(°),motionMagneticFieldCalibrationAccuracy(Z),activityTimestamp_sinceReboot(s),activity(txt),activityActivityConfidence(Z),activityActivityStartDate(txt),pedometerStartDate(txt),pedometerNumberofSteps(N),pedometerAverageActivePace(s/m),pedometerCurrentPace(s/m),pedometerCurrentCadence(steps/s),pedometerDistance(m),pedometerFloorAscended(N),pedometerFloorDescended(N),pedometerEndDate(txt),altimeterTimestamp_sinceReboot(s),altimeterReset(bool),altimeterRelativeAltitude(m),altimeterPressure(kPa),IP_Timestamp_since1970(s),IP_en0(txt),IP_pdp_ip0(txt),deviceID(txt),deviceOrientationTimeStamp_since1970(s),deviceOrientation(Z),batteryTimeStamp_since1970(s),batteryState(R),batteryLevel(Z),label(N)
2025-04-07T09:04:46.447-07:00,1,1744041886.236186,49.26524176915323,-122.9524566585969,84.18363,0.9302591,1.114125,250.4964678386225,53.0284819138307,6.450340797346594,18.41037498850026,-9999,1744041886.430848,10.67798614501953,35.27732086181641,-37.86459350585938,314.1917114257812,298.5858154296875,14.17116355895996,549886.6649917917,-0.022125244140625,-0.2432861328125,-1.375274658203125,549886.6625047917,-0.4320848286151886,0.8853442072868347,-0.8552044034004211,549886.6260367917,-101.7428131103516,-96.28636169433594,-337.6063842773438,549886.6550467917,-0.08646797233324859,-0.05163397604361404,0.2840087911124641,-0.4237044453620911,0.9390789866447449,-0.7762882709503174,-0.08574090898036957,-0.02747204899787903,-0.2935672998428345,XArbitraryCorrectedZVertical,0.1402437813448594,-0.03164526325179345,-0.04642121401236532,0.9885217812846996,-0.04954349249601364,-0.2802060842514038,-0.9586605429649353,10.67798614501953,35.27732086181641,-37.86459350585938,-1,2,549863.1711414166,walking,2,2025-04-07T09:04:22.941-07:00,2025-04-07T09:04:42.058-07:00,9,0.6311705,0.6332787,1.83839,7.47,0,0,2025-04-07T09:04:43.307-07:00,549884.696827,0,-0.1083374,99.94989,1744041886.419574,0.0.0.0,192.0.0.2,my_iOS_device,0,1,1744041886.40017,1,0.6,0
2025-04-07T09:04:46.505-07:00,2,1744041886.236186,49.26524176915323,-122.9524566585969,84.18363,0.9302591,1.114125,250.4964678386225,53.0284819138307,6.450340797346594,18.41037498850026,-9999,1744041886.490776,13.22115325927734,36.19746398925781,-38.24298095703125,317.1810913085938,301.5751953125,14.17125701904297,549886.7246597917,-0.0619354248046875,-0.1379547119140625,-1.291168212890625,549886.6960687917,-0.1231834515929222,-0.1711296737194061,-0.9411299824714661,549886.6859217917,-98.86412048339844,-94.86532592773438,-338.0127258300781,549886.7147147917,-0.1452654763406,-0.02241696809851848,0.2717160302364779,0.1336356997489929,-0.5498193502426147,-1.044233083724976,-0.03874051570892334,0.1367016136646271,-0.434971034526825,XArbitraryCorrectedZVertical,0.1342690004430824,-0.02090383692675781,-0.07340973333482495,0.9880009983017505,-0.02159272134304047,-0.2683849036693573,-0.96306973695755,13.22115325927734,36.19746398925781,-38.24298095703125,-1,2,549863.1711414166,walking,2,2025-04-07T09:04:22.941-07:00,2025-04-07T09:04:42.058-07:00,9,0.6311705,0.6332787,1.83839,7.47,0,0,2025-04-07T09:04:43.307-07:00,549884.696827,0,-0.1083374,99.94989,1744041886.419574,0.0.0.0,192.0.0.2,my_iOS_device,0,1,1744041886.40017,1,0.6,0
2025-04-07T09:04:46.567-07:00,3,1744041886.236186,49.26524176915323,-122.9524566585969,84.18363,0.9302591,1.114125,250.4964678386225,53.0284819138307,6.450340797346594,18.41037498850026,-9999,1744041886.550317,14.43972015380859,36.06791687011719,-37.3388671875,321.4062194824219,305.8003234863281,14.17133045196533,549886.7843277917,-0.0044403076171875,-0.2440948486328125,-0.967529296875,549886.7631947917,0.6244942545890808,0.3658623993396759,-1.322365760803223,549886.7458067917,-97.56382751464844,-94.84555053710938,-337.3406982421875,549886.7743827917,-0.2216056342253641,-0.007931419431348223,0.2986127941684562,0.7529650330543518,0.689852237701416,-1.341760754585266,-0.04474203288555145,0.0910850465297699,-0.08124130964279175,XArbitraryCorrectedZVertical,0.1474052899254257,-0.02034586967115349,-0.1099314470972183,0.9827373656424162,-0.007580338977277279,-0.2941946685314178,-0.9557154774665833,14.43972015380859,36.06791687011719,-37.3388671875,-1,2,549863.1711414166,walking,2,2025-04-07T09:04:22.941-07:00,2025-04-07T09:04:42.058-07:00,9,0.6311705,0.6332787,1.83839,7.47,0,0,2025-04-07T09:04:43.307-07:00,549884.696827,0,-0.1083374,99.94989,1744041886.419574,0.0.0.0,192.0.0.2,my_iOS_device,0,1,1744041886.40017,1,0.6,0
2025-04-07T09:04:46.624-07:00,4,1744041886.236186,49.26524176915323,-122.9524566585969,84.18363,0.9302591,1.114125,250.4964678386225,53.0284819138307,6.450340797346594,18.41037498850026,-9999,1744041886.609791,18.48481750488281,35.23078155517578,-35.81109619140625,325.6811828613281,310.0752868652344,14.17140674591064,549886.8439957917,0.10205078125,-0.1383209228515625,-0.8349609375,549886.8303217917,0.6835727095603943,-0.8395380973815918,-1.404867768287659,549886.8056947917,-93.79426574707031,-95.23667907714844,-335.8280029296875,549886.8340507917,-0.3052022694725554,0.03460489353135853,0.3458182055571031,0.6374405026435852,-1.043045163154602,-1.445192456245422,0.1200839430093765,0.1967699527740479,0.008045196533203125,XArbitraryCorrectedZVertical,0.1726147446853419,-0.009303614812504038,-0.146778301871016,0.9739475621513914,0.03254973143339157,-0.3389665484428406,-0.9402351975440979,18.48481750488281,35.23078155517578,-35.81109619140625,-1,2,549863.1711414166,walking,2,2025-04-07T09:04:22.941-07:00,2025-04-07T09:04:42.058-07:00,9,0.6311705,0.6332787,1.83839,7.47,0,0,2025-04-07T09:04:43.307-07:00,549884.696827,0,-0.1083374,99.94989,1744041886.419574,0.0.0.0,192.0.0.2,my_iOS_device,0,1,1744041886.40017,1,0.6,0
2025-04-07T09:04:46.684-07:00,5,1744041886.236186,49.26524176915323,-122.9524566585969,84.18363,0.9302591,1.114125,250.4964678386225,53.0284819138307,6.450340797346594,18.41037498850026,-9999,1744041886.669568,19.38483428955078,35.20745086669922,-35.3453369140625,332.7035522460938,317.09765625,14.17152214050293,549886.9036637917,-0.047393798828125,-0.3695831298828125,-0.621612548828125,549886.8974487917,0.0435890220105648,-0.07825778424739838,-2.171490907669067,549886.8655807917,-92.368896484375,-95.91993713378906,-334.9521789550781,549886.8937187917,-0.4279642763251095,0.01551367795586,0.3689753581135857,0.08900216221809387,-0.1864836513996124,-2.210250377655029,-0.01152403932064772,0.09512656927108765,0.3152602910995483,XArbitraryCorrectedZVertical,0.1808729753030772,-0.0315022346910755,-0.2073525811225217,0.9608837382215359,0.01446898654103279,-0.3606599271297455,-0.9325851798057556,19.38483428955078,35.20745086669922,-35.3453369140625,-1,2,549863.1711414166,walking,2,2025-04-07T09:04:22.941-07:00,2025-04-07T09:04:42.058-07:00,9,0.6311705,0.6332787,1.83839,7.47,0,0,2025-04-07T09:04:43.307-07:00,549884.696827,0,-0.1083374,99.94989,1744041886.419574,0.0.0.0,192.0.0.2,my_iOS_device,0,1,1744041886.40017,1,0.6,0
2025-04-07T09:04:46.744-07:00,6,1744041886.236186,49.26524176915323,-122.9524566585969,84.18363,0.9302591,1.114125,250.4964678386225,53.0284819138307,6.450340797346594,18.41037498850026,-9999,1744041886.729266,22.67341613769531,36.40731048583984,-35.39230346679688,338.3132934570312,322.7073974609375,14.17163276672363,549886.9633317917,0.1016387939453125,-0.40399169921875,-0.634002685546875,549886.9310117917,-0.06210571527481079,0.3091490566730499,-1.354807615280151,549886.9254697917,-89.48997497558594,-95.25395202636719,-335.1857299804688,549886.9533867917,-0.5270227292314754,0.06042493109003331,0.3654095180074757,0.2783893644809723,0.05781891196966171,-0.7865566611289978,-0.02280134335160255,-0.06141507625579834,0.3247442841529846,XArbitraryCorrectedZVertical,0.1830755630384363,-0.01862389692459783,-0.2507210530149053,0.9504081079000262,0.05640118941664696,-0.3573318123817444,-0.9322729706764221,22.67341613769531,36.40731048583984,-35.39230346679688,-1,2,549863.1711414166,walking,2,2025-04-07T09:04:22.941-07:00,2025-04-07T09:04:42.058-07:00,9,0.6311705,0.6332787,1.83839,7.47,0,0,2025-04-07T09:04:43.307-07:00,549884.696827,0,-0.1083374,99.94989,1744041886.419574,0.0.0.0,192.0.0.2,my_iOS_device,0,1,1744041886.40017,1,0.6,0
2025-04-07T09:04:46.804-07:00,7,1744041886.236186,49.26524176915323,-122.9524566585969,84.18363,0.9302591,1.114125,250.4964678386225,53.0284819138307,6.450340797346594,18.41037498850026,-9999,1744041886.789156,23.42546081542969,36.459228515625,-34.5521240234375,339.8316650390625,324.2257690429688,14.17172622680664,549887.0229997917,0.086639404296875,-0.4352874755859375,-0.7262420654296875,549886.9981387916,0.5277026891708374,-0.01058047264814377,-0.145887702703476,549886.9853587917,-87.88780212402344,-94.59011840820312,-333.8468017578125,549887.0130557917,-0.5510919821955983,0.06545291015850496,0.3917183123519803,0.5282687544822693,0.1336841881275177,0.04514706507325172,0.03558685258030891,-0.05804213881492615,0.2432286739349365,XArbitraryCorrectedZVertical,0.1958999478962684,-0.02203518078926536,-0.2606001567132148,0.9451058986342248,0.06045195460319519,-0.3817771375179291,-0.9222753047943115,23.42546081542969,36.459228515625,-34.5521240234375,-1,2,549863.1711414166,walking,2,2025-04-07T09:04:22.941-07:00,2025-04-07T09:04:42.058-07:00,9,0.6311705,0.6332787,1.83839,7.47,0,0,2025-04-07T09:04:43.307-07:00,549884.696827,0,-0.1083374,99.94989,1744041886.419574,0.0.0.0,192.0.0.2,my_iOS_device,0,1,1744041886.40017,1,0.6,0
2025-04-07T09:04:46.864-07:00,8,1744041886.236186,49.26524176915323,-122.9524566585969,84.18363,0.9302591,1.114125,250.4964678386225,53.0284819138307,6.450340797346594,18.41037498850026,-9999,1744041886.848539,23.95773315429688,36.27649688720703,-33.08734130859375,339.3695678710938,323.763671875,14.17182636260986,549887.0826677918,0.2747955322265625,-0.41558837890625,-1.162582397460938,549887.0652647917,0.08487334847450256,0.4274996817111969,0.002634931588545442,549887.0452467917,-87.57440185546875,-95.31095886230469,-332.98046875,549887.0727237917,-0.5476274168316931,0.08372936599809576,0.4131375289047818,-0.2069700807332993,0.0651489645242691,-0.04845975339412689,0.1390571743249893,-0.02208378911018372,0.01063382625579834,XArbitraryCorrectedZVertical,0.2083655524382428,-0.01597554339118047,-0.2561601640736016,0.9437746646419478,0.07659528404474258,-0.4014848470687866,-0.9126571416854858,23.95773315429688,36.27649688720703,-33.08734130859375,-1,2,549863.1711414166,walking,2,2025-04-07T09:04:22.941-07:00,2025-04-07T09:04:42.058-07:00,9,0.6311705,0.6332787,1.83839,7.47,0,0,2025-04-07T09:04:43.307-07:00,549884.696827,0,-0.1083374,99.94989,1744041886.419574,0.0.0.0,192.0.0.2,my_iOS_device,0,1,1744041886.40017,1,0.6,0
2025-04-07T09:04:46.923-07:00,9,1744041886.236186,49.26524176915323,-122.9524566585969,84.18363,0.9302591,1.114125,250.4964678386225,53.0284819138307,6.450340797346594,18.41037498850026,-9999,1744041886.908176,23.66770935058594,36.79385375976562,-33.8045654296875,339.2080688476562,323.6021728515625,14.17192649841309,549887.1423367917,0.171478271484375,-0.5023193359375,-1.015777587890625,549887.1323917917,-0.3705687522888184,-0.3335486650466919,0.1788967847824097,549887.1051337917,-87.60160827636719,-94.27131652832031,-333.3372497558594,549887.1323917917,-0.5396042277330964,0.06702593821035981,0.3804103608154463,-0.3752711117267609,-0.3444083034992218,0.1723267138004303,0.1000436171889305,-0.1622219681739807,-0.13411945104599,XArbitraryCorrectedZVertical,0.1908883735310113,-0.01865185773405902,-0.255481181920606,0.9475986455824142,0.06218782439827919,-0.371301531791687,-0.9264274835586548,23.66770935058594,36.79385375976562,-33.8045654296875,-1,2,549863.1711414166,walking,2,2025-04-07T09:04:22.941-07:00,2025-04-07T09:04:42.058-07:00,9,0.6311705,0.6332787,1.83839,7.47,0,0,2025-04-07T09:04:43.307-07:00,549884.696827,0,-0.1083374,99.94989,1744041886.419574,0.0.0.0,192.0.0.2,my_iOS_device,0,1,1744041886.40017,1,0.6,0
2025-04-07T09:04:46.985-07:00,10,1744041886.236186,49.26524176915323,-122.9524566585969,84.18363,0.9302591,1.114125,250.4964678386225,53.0284819138307,6.450340797346594,18.41037498850026,-9999,1744041886.967884,23.71335601806641,37.59898376464844,-33.4053955078125,337.8035888671875,322.1976928710938,14.17202568054199,549887.2020047917,0.3371734619140625,-0.3975982666015625,-1.445816040039062,549887.1995187917,-0.6424239873886108,1.134564995765686,0.8696789741516113,549887.1650237917,-88.26162719726562,-93.66395568847656,-333.2772827148438,549887.1920597916,-0.5140629401210255,0.09146078834705863,0.3557585687569522,-0.7288426756858826,1.283418416976929,0.8075430989265442,0.1779050081968307,-0.1544296741485596,-0.4218820333480835,XArbitraryCorrectedZVertical,0.1823887869386882,-0.001418645892739391,-0.2421148390887092,0.9529494380744492,0.08561427146196365,-0.3483015298843384,-0.9334646463394165,23.71335601806641,37.59898376464844,-33.4053955078125,-1,2,549863.1711414166,walking,2,2025-04-07T09:04:22.941-07:00,2025-04-07T09:04:42.058-07:00,9,0.6311705,0.6332787,1.83839,7.47,0,0,2025-04-07T09:04:43.307-07:00,549884.696827,0,-0.1083374,99.94989,1744041886.419574,0.0.0.0,192.0.0.2,my_iOS_device,0,1,1744041886.40017,1,0.6,0
2025-04-07T09:04:47.043-07:00,11,1744041886.236186,49.26524176915323,-122.9524566585969,84.18363,0.9302591,1.114125,250.4964678386225,53.0284819138307,6.450340797346594,18.41037498850026,-9999,1744041887.027446,23.44081878662109,38.11939239501953,-32.62509155273438,334.6976623535156,319.0917663574219,14.17210292816162,549887.2616727917,0.2959136962890625,-0.2967529296875,-1.138229370117188,549887.2330817917,0.1584804505109787,0.004318049177527428,0.7594099640846252,549887.2249147916,-87.60240173339844,-93.12060546875,-332.5078125,549887.2517277917,-0.4633193470134127,0.09946264942274283,0.3512983605951472,0.2148707807064056,-0.1163499504327774,0.6111846566200256,0.256237804889679,0.09788614511489868,-0.2879122495651245,XArbitraryCorrectedZVertical,0.1811066480164751,0.007567240129730396,-0.2173262118287393,0.9591207326641299,0.09323424100875854,-0.3441171646118164,-0.9342862367630005,23.44081878662109,38.11939239501953,-32.62509155273438,-1,2,549863.1711414166,walking,2,2025-04-07T09:04:22.941-07:00,2025-04-07T09:04:42.058-07:00,9,0.6311705,0.6332787,1.83839,7.47,0,0,2025-04-07T09:04:43.307-07:00,549884.696827,0,-0.1083374,99.94989,1744041886.419574,0.0.0.0,192.0.0.2,my_iOS_device,0,1,1744041886.40017,1,0.6,0
2025-04-07T09:04:47.104-07:00,12,1744041886.236186,49.26524176915323,-122.9524566585969,84.18363,0.9302591,1.114125,250.4964678386225,53.0284819138307,6.450340797346594,18.41037498850026,-9999,1744041887.087323,21.85430145263672,38.20384979248047,-32.8287353515625,332.5816040039062,316.9757080078125,14.17214107513428,549887.3213407916,0.223175048828125,-0.2963409423828125,-0.8625640869140625,549887.3002087917,-0.6521250605583191,0.0288177989423275,0.6652770638465881,549887.2848067917,-89.34634399414062,-93.14230346679688,-332.3171997070312,549887.3113967917,-0.4222748246110208,0.08309180948235773,0.3363948514387231,-0.665118396282196,0.003860238008201122,0.6792985796928406,0.1964664459228516,0.03015947341918945,-0.009074032306671143,XArbitraryCorrectedZVertical,0.1721282114206404,0.004985254261238652,-0.1996378276879922,0.9646200632051055,0.07834435999393463,-0.3300861716270447,-0.9406940340995789,21.85430145263672,38.20384979248047,-32.8287353515625,-1,2,549863.1711414166,walking,2,2025-04-07T09:04:22.941-07:00,2025-04-07T09:04:42.058-07:00,9,0.6311705,0.6332787,1.83839,7.47,0,0,2025-04-07T09:04:43.307-07:00,549885.6973999999,0,-0.1770325,99.9507,1744041886.419574,0.0.0.0,192.0.0.2,my_iOS_device,0,1,1744041886.40017,1,0.6,0
2025-04-07T09:04:47.162-07:00,13,1744041886.236186,49.26524176915323,-122.9524566585969,84.18363,0.9302591,1.114125,250.4964678386225,53.0284819138307,6.450340797346594,18.41037498850026,-9999,1744041887.146811,20.51361083984375,38.57612609863281,-32.82656860351562,330.5895690917969,314.9836730957031,14.17217826843262,549887.3810087917,0.0353546142578125,-0.3152923583984375,-0.54718017578125,549887.3673347917,0.3397256135940552,0.03627731278538704,0.3176797032356262,549887.3447007918,-90.71101379394531,-92.92942810058594,-333.0565795898438,549887.3710647917,-0.3865702304354028,0.06673422151991437,0.3305548849637656,0.3655163943767548,0.08036775887012482,0.2711098492145538,0.0005088299512863159,0.03964060544967651,0.3500832915306091,XArbitraryCorrectedZVertical,0.1676931754348827,0.0007083384504401145,-0.1839742989129161,0.9685204971838908,0.06307455152273178,-0.3245679140090942,-0.9437569975852966,20.51361083984375,38.57612609863281,-32.82656860351562,-1,2,549863.1711414166,walking,2,2025-04-07T09:04:22.941-07:00,2025-04-07T09:04:42.058-07:00,9,0.6311705,0.6332787,1.83839,7.47,0,0,2025-04-07T09:04:43.307-07:00,549885.6973999999,0,-0.1770325,99.9507,1744041886.419574,0.0.0.0,192.0.0.2,my_iOS_device,0,1,1744041886.40017,1,0.6,0
2025-04-07T09:04:47.221-07:00,14,1744041886.236186,49.26524176915323,-122.9524566585969,84.18363,0.9302591,1.114125,250.4964678386225,53.0284819138307,6.450340797346594,18.41037498850026,-9999,1744041887.206555,20.34706878662109,38.21727752685547,-32.15972900390625,330.0293579101562,314.4234619140625,14.17160034179688,549887.440678625,0.029449462890625,-0.36346435546875,-0.59503173828125,549887.4344626251,0.1397592276334763,0.5210197567939758,0.2068168222904205,549887.404593625,-91.49626159667969,-92.59097290039062,-331.953857421875,549887.4307336251,-0.3813204579944219,0.0873134533849247,0.3521319414595094,0.1764647364616394,0.4968146681785583,0.19313645362854,-0.06511286646127701,-0.02198255062103271,0.3604331016540527,XArbitraryCorrectedZVertical,0.1799626535993995,0.009027525519276101,-0.1788938518552664,0.9672274912844187,0.0818517655134201,-0.3448997139930725,-0.935063898563385,20.34706878662109,38.21727752685547,-32.15972900390625,-1,2,549863.1711414166,walking,2,2025-04-07T09:04:22.941-07:00,2025-04-07T09:04:42.058-07:00,9,0.6311705,0.6332787,1.83839,7.47,0,0,2025-04-07T09:04:43.307-07:00,549885.6973999999,0,-0.1770325,99.9507,1744041886.419574,0.0.0.0,192.0.0.2,my_iOS_device,0,1,1744041886.40017,1,0.6,0
2025-04-07T09:04:47.283-07:00,15,1744041886.236186,49.26524176915323,-122.9524566585969,84.18363,0.9302591,1.114125,250.4964678386225,53.0284819138307,6.450340797346594,18.41037498850026,-9999,1744041887.266086,19.98539733886719,38.95892333984375,-30.33465576171875,330.3209228515625,314.7150268554688,14.1678524017334,549887.500346625,0.0172882080078125,-0.3599090576171875,-0.6811370849609375,549887.468026625,-0.0779254212975502,0.4681762456893921,0.3145542144775391,549887.464483625,-91.26441955566406,-92.83741760253906,-330.9537353515625,549887.4904016251,-0.3893787845739127,0.1088226267384061,0.3525524281994704,-0.07927321642637253,0.3580829501152039,0.3821453750133514,-0.0852501168847084,-0.02219820022583008,0.26566082239151,XArbitraryCorrectedZVertical,0.1821553412967896,0.01865401654825263,-0.1808250164184299,0.9663197150162984,0.1019279733300209,-0.3452943563461304,-0.9329429268836975,19.98539733886719,38.95892333984375,-30.33465576171875,-1,2,549863.1711414166,walking,2,2025-04-07T09:04:22.941-07:00,2025-04-07T09:04:42.058-07:00,9,0.6311705,0.6332787,1.83839,7.47,0,0,2025-04-07T09:04:43.307-07:00,549885.6973999999,0,-0.1770325,99.9507,1744041886.419574,0.0.0.0,192.0.0.2,my_iOS_device,0,1,1744041886.40017,1,0.6,0
2025-04-07T09:04:47.340-07:00,16,1744041886.236186,49.26524176915323,-122.9524566585969,84.18363,0.9302591,1.114125,250.4964678386225,53.0284819138307,6.450340797346594,18.41037498850026,-9999,1744041887.325844,19.65132141113281,38.64823150634766,-29.79061889648438,330.4532165527344,314.8473205566406,14.16417026519775,549887.5600146251,-0.007293701171875,-0.422760009765625,-0.8406829833984375,549887.5351526251,0.08208981156349182,0.2109615057706833,0.3300793766975403,549887.524369625,-91.96405029296875,-92.33648681640625,-329.2781982421875,549887.550070625,-0.3937224487766462,0.1159050703482107,0.356259442340105,0.06982047855854034,0.08865295350551605,0.3252714872360229,-0.09236236661672592,-0.04724028706550598,0.1324578523635864,XArbitraryCorrectedZVertical,0.184624590626962,0.02130398001710942,-0.1821095005943119,0.9655547889127025,0.1083841025829315,-0.3487710058689117,-0.9309198260307312,19.65132141113281,38.64823150634766,-29.79061889648438,-1,2,549863.1711414166,walking,2,2025-04-07T09:04:22.941-07:00,2025-04-07T09:04:42.058-07:00,9,0.6311705,0.6332787,1.83839,7.47,0,0,2025-04-07T09:04:43.307-07:00,549885.6973999999,0,-0.1770325,99.9507,1744041886.419574,0.0.0.0,192.0.0.2,my_iOS_device,0,1,1744041886.40017,1,0.6,0
2025-04-07T09:04:47.400-07:00,17,1744041887.236185,49.26524385930163,-122.9524470722144,84.34145,1.093205,0.8408023,247.1805703934923,30.09259119498585,6.48136771930447,14,-9999,1744041887.385667,19.13134765625,38.03338623046875,-28.9605712890625,330.6722717285156,315.0663757324219,14.16054821014404,549887.6196836251,-0.0284271240234375,-0.3925933837890625,-1.009323120117188,549887.602279625,-0.06647463142871857,-0.1439891308546066,0.4760805070400238,549887.5842626251,-92.42251586914062,-93.17573547363281,-328.98828125,549887.609738625,-0.3947550345205124,0.1034874905356012,0.357078493316216,-0.07112827152013779,-0.1348429620265961,0.4839078485965729,-0.1117098182439804,-0.07734128832817078,-0.03491801023483276,XArbitraryCorrectedZVertical,0.1838921743104488,0.01513133347803994,-0.183716151174989,0.9655066807579744,0.096786729991436,-0.3495385050773621,-0.931909441947937,19.13134765625,38.03338623046875,-28.9605712890625,-1,2,549863.1711414166,walking,2,2025-04-07T09:04:22.941-07:00,2025-04-07T09:04:42.058-07:00,9,0.6311705,0.6332787,1.83839,7.47,0,0,2025-04-07T09:04:43.307-07:00,549885.6973999999,0,-0.1770325,99.9507,1744041886.419574,0.0.0.0,192.0.0.2,my_iOS_device,0,1,1744041886.40017,1,0.6,0
2025-04-07T09:04:47.460-07:00,18,1744041887.236185,49.26524385930163,-122.9524470722144,84.34145,1.093205,0.8408023,247.1805703934923,30.09259119498585,6.48136771930447,14,-9999,1744041887.446347,18.01731872558594,37.63998413085938,-28.93441772460938,330.5833129882812,314.9774169921875,14.16065692901611,549887.679351625,-0.0772857666015625,-0.35528564453125,-1.162872314453125,549887.669406625,0.6145819425582886,-1.249254465103149,-0.4818984568119049,549887.644151625,-93.1732177734375,-93.30252075195312,-328.806884765625,549887.669406625,-0.3915380143447064,0.05934540556977538,0.3750630706171585,0.6098774075508118,-1.260114669799805,-0.4884710311889648,-0.1137660592794418,0.06413096189498901,-0.2470263242721558,XArbitraryCorrectedZVertical,0.1884624974259245,-0.007657986985867348,-0.1856007778332192,0.9643524954027991,0.05518757551908493,-0.3663312196731567,-0.9288464784622192,17.8316650390625,37.38947296142578,-28.83419799804688,-1,2,549863.1711414166,walking,2,2025-04-07T09:04:22.941-07:00,2025-04-07T09:04:42.058-07:00,9,0.6311705,0.6332787,1.83839,7.47,0,0,2025-04-07T09:04:43.307-07:00,549885.6973999999,0,-0.1770325,99.9507,1744041886.419574,0.0.0.0,192.0.0.2,my_iOS_device,0,1,1744041886.40017,1,0.6,0
2025-04-07T09:04:47.520-07:00,19,1744041887.236185,49.26524385930163,-122.9524470722144,84.34145,1.093205,0.8408023,247.1805703934923,30.09259119498585,6.48136771930447,14,-9999,1744041887.505088,18.03700256347656,37.68870544433594,-29.25863647460938,332.7110290527344,317.1051330566406,14.16075801849365,549887.739019625,-0.092681884765625,-0.3736419677734375,-1.39129638671875,549887.7365336251,-0.6076270937919617,0.4889901876449585,-0.06132194772362709,549887.704041625,-93.63880920410156,-93.3782958984375,-328.6282348632812,549887.7290746251,-0.424397062670815,0.05449571911792652,0.360754805200028,-0.7590817213058472,0.488057404756546,-0.1744348704814911,-0.185133159160614,-0.09146210551261902,-0.4466024041175842,XArbitraryCorrectedZVertical,0.1809567128845805,-0.01156822442158594,-0.2023377471827364,0.9623825780143385,0.05096263065934181,-0.3529805541038513,-0.9342417120933533,18.2408447265625,37.90561676025391,-29.3067626953125,-1,2,549863.1711414166,walking,2,2025-04-07T09:04:22.941-07:00,2025-04-07T09:04:42.058-07:00,9,0.6311705,0.6332787,1.83839,7.47,0,0,2025-04-07T09:04:43.307-07:00,549885.6973999999,0,-0.1770325,99.9507,1744041886.419574,0.0.0.0,192.0.0.2,my_iOS_device,0,1,1744041886.40017,1,0.6,0
2025-04-07T09:04:47.589-07:00,20,1744041887.236185,49.26524385930163,-122.9524470722144,84.34145,1.093205,0.8408023,247.1805703934923,30.09259119498585,6.48136771930447,14,-9999,1744041887.584469,19.56858825683594,37.42642974853516,-30.55038452148438,333.0175170898438,317.41162109375,14.16084098815918,549887.798688625,0.0776824951171875,-0.2112884521484375,-1.275115966796875,549887.7700966251,0.2530767321586609,0.255381166934967,-0.08610185980796814,549887.763927625,-92.47166442871094,-93.40312194824219,-329.5441284179688,549887.788743625,-0.4291082250756529,0.07615655743150082,0.3564373262078753,0.3279956877231598,0.4748185873031616,-0.233228012919426,-0.02929338812828064,0.1286160945892334,-0.4100223183631897,XArbitraryCorrectedZVertical,0.1810634462603781,-0.001109886914087086,-0.202793570301066,0.9623354711758662,0.07130084186792374,-0.3489377200603485,-0.9344295859336853,18.91371154785156,37.62796783447266,-30.098876953125,-1,2,549863.1711414166,walking,2,2025-04-07T09:04:22.941-07:00,2025-04-07T09:04:42.058-07:00,9,0.6311705,0.6332787,1.83839,7.47,0,0,2025-04-07T09:04:43.307-07:00,549885.6973999999,0,-0.1770325,99.9507,1744041886.419574,0.0.0.0,192.0.0.2,my_iOS_device,0,1,1744041886.40017,1,0.6,0
2025-04-07T09:04:47.639-07:00,21,1744041887.236185,49.26524385930163,-122.9524470722144,84.34145,1.093205,0.8408023,247.1805703934923,30.09259119498585,6.48136771930447,14,-9999,1744041887.624571,20.71431732177734,37.19346618652344,-29.97018432617188,334.4786682128906,318.8727722167969,14.16086196899414,549887.8583566251,0.304107666015625,-0.076995849609375,-0.8563995361328125,549887.837223625,0.2148577123880386,0.2178130149841309,-0.9254838824272156,549887.8238166251,-90.83967590332031,-93.97966003417969,-329.6861877441406,549887.848411625,-0.472939482273917,0.115644278686352,0.3695503287420981,0.3638433814048767,0.02730756253004074,-1.409771680831909,0.1694264113903046,0.2860161662101746,-0.110039234161377,XArbitraryCorrectedZVertical,0.1916222506688748,0.01225551482687009,-0.219577333014402,0.9565126697185742,0.1075969189405441,-0.3611961603164673,-0.9262614250183105,21.13196563720703,37.24791717529297,-30.37075805664062,-1,2,549863.1711414166,walking,2,2025-04-07T09:04:22.941-07:00,2025-04-07T09:04:42.058-07:00,9,0.6311705,0.6332787,1.83839,7.47,0,0,2025-04-07T09:04:43.307-07:00,549885.6973999999,0,-0.1770325,99.9507,1744041886.419574,0.0.0.0,192.0.0.2,my_iOS_device,0,1,1744041886.40017,1,0.6,0
2025-04-07T09:04:47.704-07:00,22,1744041887.236185,49.26524385930163,-122.9524470722144,84.34145,1.093205,0.8408023,247.1805703934923,30.09259119498585,6.48136771930447,14,-9999,1744041887.683923,23.90774536132812,37.38023376464844,-30.80819702148438,341.2868957519531,325.6809997558594,14.16094303131104,549887.918024625,0.0112762451171875,-0.3017578125,-0.406005859375,549887.904350625,0.4356566667556763,-0.415952205657959,-2.094783306121826,549887.8837026251,-87.88157653808594,-93.67439270019531,-330.2549133300781,549887.908080625,-0.6035660478997098,0.1505642213749897,0.3807575979733362,0.4108929932117462,-0.4494540393352509,-2.033634662628174,-0.03712671995162964,0.124294251203537,0.4526244401931763,XArbitraryCorrectedZVertical,0.2021179613410559,0.01443015284763415,-0.277437375143737,0.9391318868566189,0.1392537802457809,-0.3716239035129547,-0.9178801774978638,24.69996643066406,37.60020446777344,-30.75662231445312,-1,2,549863.1711414166,walking,2,2025-04-07T09:04:22.941-07:00,2025-04-07T09:04:42.058-07:00,9,0.6311705,0.6332787,1.83839,7.47,0,0,2025-04-07T09:04:43.307-07:00,549885.6973999999,0,-0.1770325,99.9507,1744041886.419574,0.0.0.0,192.0.0.2,my_iOS_device,0,1,1744041886.40017,1,0.6,0
2025-04-07T09:04:47.759-07:00,23,1744041887.236185,49.26524385930163,-122.9524470722144,84.34145,1.093205,0.8408023,247.1805703934923,30.09259119498585,6.48136771930447,14,-9999,1744041887.743822,26.12757110595703,38.00070953369141,-31.311767578125,345.8115539550781,330.2056579589844,14.16103744506836,549887.977693625,0.141326904296875,-0.2100372314453125,-0.3516998291015625,549887.9714776251,0.2749513983726501,0.1164661571383476,-0.418904572725296,549887.9435906251,-85.63763427734375,-93.21633911132812,-330.7952270507812,549887.9677486251,-0.6757236484607555,0.1565717509642182,0.388724962295826,0.2961359918117523,0.03730069100856781,-0.426683247089386,-0.1126676946878433,0.09810981154441833,0.5871537923812866,XArbitraryCorrectedZVertical,0.2070986894526935,0.008570825813200882,-0.3099823504518088,0.9278726556786848,0.1442991495132446,-0.3790087997913361,-0.9140733480453491,26.71288299560547,37.749755859375,-31.44332885742188,-1,2,549863.1711414166,walking,2,2025-04-07T09:04:22.941-07:00,2025-04-07T09:04:42.058-07:00,9,0.6311705,0.6332787,1.83839,7.47,0,0,2025-04-07T09:04:43.307-07:00,549885.6973999999,0,-0.1770325,99.9507,1744041886.419574,0.0.0.0,192.0.0.2,my_iOS_device,0,1,1744041886.40017,1,0.6,0
2025-04-07T09:04:47.818-07:00,24,1744041887.236185,49.26524385930163,-122.9524470722144,84.34145,1.093205,0.8408023,247.1805703934923,30.09259119498585,6.48136771930447,14,-9999,1744041887.803389,27.92274475097656,38.28862762451172,-31.93161010742188,347.6662292480469,332.0603332519531,14.1611385345459,549888.037361625,0.1555633544921875,-0.37689208984375,-0.5481109619140625,549888.005041625,-0.08713064342737198,0.08569706231355667,-0.6477375030517578,549888.003481625,-83.90324401855469,-93.277099609375,-331.765869140625,549888.0274166251,-0.7117939810947209,0.1748566209610413,0.3823836448524821,-0.2864547669887543,0.02427776157855988,-0.5964704155921936,0.006596580147743225,0.0307258665561676,0.40351402759552,XArbitraryCorrectedZVertical,0.2073101030868444,0.01439464844495604,-0.3252227959274933,0.9225212620766278,0.1614026874303818,-0.3731330335140228,-0.9136306047439575,28.05551147460938,38.29185485839844,-32.15362548828125,-1,2,549863.1711414166,walking,2,2025-04-07T09:04:22.941-07:00,2025-04-07T09:04:42.058-07:00,9,0.6311705,0.6332787,1.83839,7.47,0,0,2025-04-07T09:04:43.307-07:00,549885.6973999999,0,-0.1770325,99.9507,1744041886.419574,0.0.0.0,192.0.0.2,my_iOS_device,0,1,1744041886.40017,1,0.6,0
2025-04-07T09:04:47.878-07:00,25,1744041887.236185,49.26524385930163,-122.9524470722144,84.34145,1.093205,0.8408023,247.1805703934923,30.09259119498585,6.48136771930447,14,-9999,1744041887.862948,29.05461883544922,39.97460174560547,-33.33670043945312,348.2339172363281,332.6280212402344,14.16125774383545,549888.0970296251,0.3183441162109375,-0.3658599853515625,-0.8480072021484375,549888.0721686251,-1.043293833732605,0.1254870891571045,0.03998603299260139,549888.063370625,-82.47409057617188,-91.54765319824219,-332.3948974609375,549888.087085625,-0.7142185487678886,0.1817208832990326,0.3352865755557476,-1.395028114318848,0.3696289360523224,0.1384429335594177,0.1151838302612305,-0.01889103651046753,0.1630352735519409,XArbitraryCorrectedZVertical,0.1869608283699192,0.02573139312147823,-0.3290600475160563,0.9252583848238932,0.1706590503454208,-0.3290398120880127,-0.9287670850753784,29.11602020263672,40.60005950927734,-33.41204833984375,-1,2,549863.1711414166,walking,2,2025-04-07T09:04:22.941-07:00,2025-04-07T09:04:42.058-07:00,9,0.6311705,0.6332787,1.83839,7.47,0,0,2025-04-07T09:04:43.307-07:00,549885.6973999999,0,-0.1770325,99.9507,1744041886.419574,0.0.0.0,192.0.0.2,my_iOS_device,0,1,1744041886.40017,1,0.6,0
2025-04-07T09:04:47.937-07:00,26,1744041887.236185,49.26524385930163,-122.9524470722144,84.34145,1.093205,0.8408023,247.1805703934923,30.09259119498585,6.48136771930447,14,-9999,1744041887.92262,29.89768218994141,42.47231292724609,-35.0909423828125,346.4733276367188,330.867431640625,14.16140365600586,549888.1566986251,0.4008026123046875,-0.3297271728515625,-1.147628784179688,549888.139295625,-1.320595264434814,0.2512482106685638,0.4537376761436462,549888.123253625,-81.70205688476562,-89.1639404296875,-334.6799621582031,549888.146753625,-0.6760541457648086,0.1975657263960211,0.2500837937022988,-1.175402998924255,0.09106731414794922,0.4683979153633118,0.2096643298864365,-0.07557386159896851,-0.1353898644447327,XArbitraryCorrectedZVertical,0.1495355092977247,0.05115730775921097,-0.315829407010039,0.9355607668257958,0.1901769638061523,-0.2474851459264755,-0.9500440955162048,30.09552001953125,42.816650390625,-35.42578125,-1,2,549863.1711414166,walking,2,2025-04-07T09:04:22.941-07:00,2025-04-07T09:04:42.058-07:00,9,0.6311705,0.6332787,1.83839,7.47,0,0,2025-04-07T09:04:43.307-07:00,549885.6973999999,0,-0.1770325,99.9507,1744041886.419574,0.0.0.0,192.0.0.2,my_iOS_device,0,1,1744041886.40017,1,0.6,0
2025-04-07T09:04:47.999-07:00,27,1744041887.236185,49.26524385930163,-122.9524470722144,84.34145,1.093205,0.8408023,247.1805703934923,30.09259119498585,6.48136771930447,14,-9999,1744041887.982293,29.93419647216797,43.76333618164062,-36.45977783203125,344.0927429199219,328.4868469238281,14.16152572631836,549888.216366625,0.35528564453125,-0.4162445068359375,-1.397308349609375,549888.206422625,-0.7316707372665405,1.057347059249878,0.9585302472114563,549888.1831466251,-81.76763916015625,-87.2032470703125,-335.3892822265625,549888.206422625,-0.6287579749352802,0.2007553052648207,0.2135188525705093,-0.7363764047622681,1.046486496925354,0.9519563913345337,0.1253397315740585,-0.2484726905822754,-0.2444542646408081,XArbitraryCorrectedZVertical,0.1316350257799571,0.06197096439021434,-0.2957631340575177,0.9441165091088149,0.1948812007904053,-0.2119001448154449,-0.9576636552810669,30.06604766845703,43.59317016601562,-36.438720703125,-1,2,549863.1711414166,walking,2,2025-04-07T09:04:22.941-07:00,2025-04-07T09:04:42.058-07:00,9,0.6311705,0.6332787,1.83839,7.47,0,0,2025-04-07T09:04:43.307-07:00,549885.6973999999,0,-0.1770325,99.9507,1744041886.419574,0.0.0.0,192.0.0.2,my_iOS_device,0,1,1744041886.40017,1,0.6,0
2025-04-07T09:04:48.056-07:00,28,1744041887.236185,49.26524385930163,-122.9524470722144,84.34145,1.093205,0.8408023,247.1805703934923,30.09259119498585,6.48136771930447,14,-9999,1744041888.042106,30.71834564208984,44.56492614746094,-37.19406127929688,339.518798828125,323.9129028320312,14.16167068481445,549888.276035625,0.430755615234375,-0.0897979736328125,-1.717422485351562,549888.2735496251,-1.104175925254822,-1.077656865119934,0.9768581390380859,549888.2430356251,-80.691162109375,-86.65032958984375,-336.9925537109375,549888.2660906251,-0.5436119067424395,0.2241532416736169,0.1466522734552579,-1.371364831924438,-0.802230179309845,1.006903290748596,0.2769465446472168,0.002282649278640747,-0.8746400475502014,XArbitraryCorrectedZVertical,0.1000738463968053,0.08790169057455266,-0.2581774171057092,0.9568715295512761,0.2198948711156845,-0.1461271643638611,-0.9645170569419861,30.41555786132812,44.85243225097656,-37.724853515625,-1,2,549863.1711414166,walking,2,2025-04-07T09:04:22.941-07:00,2025-04-07T09:04:42.058-07:00,9,0.6311705,0.6332787,1.83839,7.47,0,0,2025-04-07T09:04:43.307-07:00,549885.6973999999,0,-0.1770325,99.9507,1744041886.419574,0.0.0.0,192.0.0.2,my_iOS_device,0,1,1744041886.40017,1,0.6,0
2025-04-07T09:04:48.116-07:00,29,1744041887.236185,49.26524385930163,-122.9524470722144,84.34145,1.093205,0.8408023,247.1805703934923,30.09259119498585,6.48136771930447,14,-9999,1744041888.101583,27.34101867675781,45.10337066650391,-39.83743286132812,336.5495300292969,320.9436340332031,14.16173362731934,549888.335703625,0.2457122802734375,-0.0986480712890625,-1.139495849609375,549888.307112625,0.00321922916918993,-0.8454692363739014,0.7882077693939209,549888.302922625,-84.13912963867188,-85.87483215332031,-339.1549987792969,549888.3257586251,-0.4885929079693713,0.1603441707422366,0.1320874887575202,-0.01152843981981277,-0.399885505437851,0.6006612181663513,0.06307677924633026,0.03142304718494415,-0.2189517617225647,XArbitraryCorrectedZVertical,0.08315901111635873,0.06162751005380675,-0.2354427755006784,0.9663609201544897,0.1582672148942947,-0.1317037343978882,-0.9785732626914978,26.85366821289062,45.30510711669922,-39.94561767578125,-1,2,549863.1711414166,walking,2,2025-04-07T09:04:22.941-07:00,2025-04-07T09:04:42.058-07:00,9,0.6311705,0.6332787,1.83839,7.47,0,0,2025-04-07T09:04:43.307-07:00,549886.697982,0,-0.2536621,99.95159,1744041886.419574,0.0.0.0,192.0.0.2,my_iOS_device,0,1,1744041886.40017,1,0.6,0
2025-04-07T09:04:48.176-07:00,30,1744041887.236185,49.26524385930163,-122.9524470722144,84.34145,1.093205,0.8408023,247.1805703934923,30.09259119498585,6.48136771930447,14,-9999,1744041888.161437,25.89279174804688,45.08209991455078,-40.75775146484375,335.1958923339844,319.5899963378906,14.16172218322754,549888.3953753751,0.1397247314453125,-0.16412353515625,-0.7059783935546875,549888.3742396251,-0.1651482135057449,-0.4680119454860687,0.2578355371952057,549888.362812625,-85.48320007324219,-86.29411315917969,-340.0339965820312,549888.385427625,-0.4649014565347502,0.1369060163381792,0.1242845123725926,-0.02755958773195744,-0.6155601739883423,0.2088370323181152,0.05881835520267487,-0.02114621549844742,0.1343079209327698,XArbitraryCorrectedZVertical,0.07601679178932372,0.05215890081201889,-0.2252463771283993,0.9699304574280522,0.1354260295629501,-0.1239647939801216,-0.9830017685890198,25.7037353515625,44.90642547607422,-40.90447998046875,-1,2,549863.1711414166,walking,2,2025-04-07T09:04:22.941-07:00,2025-04-07T09:04:42.058-07:00,9,0.6311705,0.6332787,1.83839,7.47,0,0,2025-04-07T09:04:43.307-07:00,549886.697982,0,-0.2536621,99.95159,1744041886.419574,0.0.0.0,192.0.0.2,my_iOS_device,0,1,1744041886.40017,1,0.6,0
2025-04-07T09:04:48.236-07:00,31,1744041887.236185,49.26524385930163,-122.9524470722144,84.34145,1.093205,0.8408023,247.1805703934923,30.09259119498585,6.48136771930447,14,-9999,1744041888.220864,24.30451965332031,44.40083312988281,-41.5096435546875,335.3066711425781,319.7007751464844,14.16174125671387,549888.455043375,-0.029632568359375,-0.2152557373046875,-0.3816986083984375,549888.441369375,0.4302696287631989,-0.281716912984848,0.08376946300268173,549888.422704375,-87.35432434082031,-86.28208923339844,-340.9219360351562,549888.4450983751,-0.4590795009881404,0.1016463240125928,0.1420543966980465,0.4294884204864502,-0.2307222485542297,0.06734237819910049,-0.1085059195756912,-0.07027584314346313,0.5664369463920593,XArbitraryCorrectedZVertical,0.0805465155870411,0.03321776088473326,-0.2231519638654902,0.9708820501152398,0.1004492789506912,-0.1415771096944809,-0.9848176836967468,24.153076171875,44.34842681884766,-41.31063842773438,-1,2,549863.1711414166,walking,2,2025-04-07T09:04:22.941-07:00,2025-04-07T09:04:42.058-07:00,9,0.6311705,0.6332787,1.83839,7.47,0,0,2025-04-07T09:04:43.307-07:00,549886.697982,0,-0.2536621,99.95159,1744041886.419574,0.0.0.0,192.0.0.2,my_iOS_device,0,1,1744041886.40017,1,0.6,0
2025-04-07T09:04:48.303-07:00,32,1744041887.236185,49.26524385930163,-122.9524470722144,84.34145,1.093205,0.8408023,247.1805703934923,30.09259119498585,6.48136771930447,14,-9999,1744041888.300372,24.48217010498047,43.22833251953125,-41.03842163085938,335.1170654296875,319.5111694335938,14.16184616088867,549888.514712375,-0.042938232421875,-0.1798553466796875,-0.5856170654296875,549888.5084963751,0.1664984375238419,0.1905134916305542,-0.157709464430809,549888.482591375,-87.41839599609375,-87.79856872558594,-341.3211669921875,549888.5047673751,-0.4624000454332305,0.1112559157666726,0.1633016849972508,0.1807114332914352,0.2066866755485535,-0.1473038792610168,-0.1338719427585602,-0.009069204330444336,0.4610490798950195,XArbitraryCorrectedZVertical,0.09196509398737686,0.03527933431234807,-0.2236150672780376,0.9696876256423366,0.1095494255423546,-0.1625768393278122,-0.980595588684082,24.39889526367188,43.36058044433594,-41.30349731445312,-1,2,549863.1711414166,walking,2,2025-04-07T09:04:22.941-07:00,2025-04-07T09:04:42.058-07:00,9,0.6311705,0.6332787,1.83839,7.47,0,0,2025-04-07T09:04:43.307-07:00,549886.697982,0,-0.2536621,99.95159,1744041886.419574,0.0.0.0,192.0.0.2,my_iOS_device,0,1,1744041886.40017,1,0.6,0
2025-04-07T09:04:48.355-07:00,33,1744041887.236185,49.26524385930163,-122.9524470722144,84.34145,1.093205,0.8408023,247.1805703934923,30.09259119498585,6.48136771930447,14,-9999,1744041888.340261,24.90486907958984,43.48412322998047,-41.2490234375,335.7958374023438,320.18994140625,14.16191291809082,549888.574380375,-0.0326385498046875,-0.149932861328125,-0.8492431640625,549888.542060375,0.06111608445644379,-0.012874785810709,-0.295027107000351,549888.5424853751,-86.69448852539062,-87.99130249023438,-341.0374145507812,549888.564435375,-0.4793702414962047,0.1161307102360679,0.1661971636615399,-0.001978515647351742,-0.01828920654952526,-0.3918764889240265,-0.1441499888896942,0.008862763643264771,0.2239171862602234,XArbitraryCorrectedZVertical,0.09422350760241537,0.03650777894656868,-0.2314996784509209,0.9675727428805987,0.1142732873558998,-0.1654331237077713,-0.9795781970024109,24.68692016601562,43.45848846435547,-41.1988525390625,-1,2,549863.1711414166,walking,2,2025-04-07T09:04:22.941-07:00,2025-04-07T09:04:42.058-07:00,9,0.6311705,0.6332787,1.83839,7.47,0,0,2025-04-07T09:04:43.307-07:00,549886.697982,0,-0.2536621,99.95159,1744041886.419574,0.0.0.0,192.0.0.2,my_iOS_device,0,1,1744041886.40017,1,0.6,0
2025-04-07T09:04:48.417-07:00,34,1744041888.236183,49.26524165079245,-122.9524359952641,84.42992,1.054666,0.6509449,250.5911429503453,27.13337090209686,7.743016359465519,14,-9999,1744041888.399908,25.16596221923828,43.74172210693359,-41.779296875,337.246826171875,321.6409301757812,14.16201877593994,549888.6340493751,-0.05255126953125,-0.1681365966796875,-1.050521850585938,549888.6091873751,0.236334502696991,-0.2616694271564484,-0.4184406697750092,549888.602377375,-86.385009765625,-87.67405700683594,-341.7401123046875,549888.624104375,-0.5051851198514088,0.1108442062572567,0.171216457862965,0.3368116915225983,-0.4323374629020691,-0.4738844931125641,-0.159476026892662,0.004899665713310242,-0.05516904592514038,XArbitraryCorrectedZVertical,0.09645638299734882,0.03210369065578202,-0.2440314575102032,0.9644243387432293,0.1089999452233315,-0.1703811436891556,-0.9793310165405273,25.09638214111328,43.32427978515625,-42.09075927734375,-1,2,549863.1711414166,walking,2,2025-04-07T09:04:22.941-07:00,2025-04-07T09:04:42.058-07:00,9,0.6311705,0.6332787,1.83839,7.47,0,0,2025-04-07T09:04:43.307-07:00,549886.697982,0,-0.2536621,99.95159,1744041886.419574,0.0.0.0,192.0.0.2,my_iOS_device,0,1,1744041886.40017,1,0.6,0
2025-04-07T09:04:48.474-07:00,35,1744041888.236183,49.26524165079245,-122.9524359952641,84.42992,1.054666,0.6509449,250.5911429503453,27.13337090209686,7.743016359465519,14,-9999,1744041888.459625,24.95479583740234,43.23862457275391,-42.368896484375,339.2578125,323.6519165039062,14.16212844848633,549888.693717375,-0.0367584228515625,-0.2501983642578125,-1.295547485351562,549888.676314375,0.08022719621658325,-0.2752089202404022,-0.5796833634376526,549888.662262375,-86.32452392578125,-87.54710388183594,-341.2897338867188,549888.683772375,-0.5399416082584739,0.09349431339763174,0.1836124546572399,-0.04300818592309952,-0.3005386590957642,-0.614815890789032,-0.1485515832901001,-0.04948835074901581,-0.219421923160553,XArbitraryCorrectedZVertical,0.1006707118031623,0.02042391111652924,-0.2611610903595802,0.9598141634554505,0.09178886562585831,-0.1825824826955795,-0.9788965582847595,24.84481811523438,43.19680786132812,-42.36163330078125,-1,2,549863.1711414166,walking,2,2025-04-07T09:04:22.941-07:00,2025-04-07T09:04:42.058-07:00,14,0.653322,0.63761,1.837094,11.42,0,0,2025-04-07T09:04:45.853-07:00,549886.697982,0,-0.2536621,99.95159,1744041886.419574,0.0.0.0,192.0.0.2,my_iOS_device,0,1,1744041886.40017,1,0.6,0
2025-04-07T09:04:48.534-07:00,36,1744041888.236183,49.26524165079245,-122.9524359952641,84.42992,1.054666,0.6509449,250.5911429503453,27.13337090209686,7.743016359465519,14,-9999,1744041888.519214,24.46402740478516,44.49625396728516,-43.086669921875,342.1275634765625,326.5216674804688,14.1622371673584,549888.753386375,0.041046142578125,-0.2107696533203125,-1.591156005859375,549888.7434413751,-1.041215062141418,-0.1384998261928558,-0.7195326089859009,549888.722147375,-87.15364074707031,-86.94337463378906,-342.529052734375,549888.7434413751,-0.5815178333155527,0.07825158821867347,0.1476350483043355,-1.045921802520752,-0.1493606269359589,-0.7261077165603638,-0.07257590442895889,-0.1345320791006088,-0.5341840386390686,XArbitraryCorrectedZVertical,0.08178402596280254,0.01624536987056737,-0.282916128885643,0.9555134599021715,0.0773213803768158,-0.1470993161201477,-0.9860949516296387,24.50540924072266,44.99250030517578,-43.48281860351562,-1,2,549863.1711414166,walking,2,2025-04-07T09:04:22.941-07:00,2025-04-07T09:04:42.058-07:00,14,0.653322,0.63761,1.837094,11.42,0,0,2025-04-07T09:04:45.853-07:00,549886.697982,0,-0.2536621,99.95159,1744041886.419574,0.0.0.0,192.0.0.2,my_iOS_device,0,1,1744041886.40017,1,0.6,0
2025-04-07T09:04:48.593-07:00,37,1744041888.236183,49.26524165079245,-122.9524359952641,84.42992,1.054666,0.6509449,250.5911429503453,27.13337090209686,7.743016359465519,14,-9999,1744041888.579151,25.08706665039062,46.88369750976562,-44.6385498046875,345.249755859375,329.6438598632812,14.16231822967529,549888.813054375,0.0223388671875,-0.12969970703125,-1.485733032226562,549888.810568375,0.7248703837394714,0.07019373774528503,-1.139886260032654,549888.782033375,-86.15824890136719,-84.11383056640625,-344.128662109375,549888.8031093751,-0.6388041763801929,0.07318087109953024,0.1199284477980667,0.6172365546226501,-0.127591997385025,-1.163686633110046,-0.0177350640296936,0.05309766530990601,-0.5495434999465942,XArbitraryCorrectedZVertical,0.06832539001481558,0.01586481018292038,-0.3111433709310492,0.9477708824599941,0.07259039580821991,-0.1196411699056625,-0.9901598691940308,25.14293670654297,46.85597229003906,-44.6947021484375,-1,2,549863.1711414166,walking,2,2025-04-07T09:04:22.941-07:00,2025-04-07T09:04:42.058-07:00,14,0.653322,0.63761,1.837094,11.42,0,0,2025-04-07T09:04:45.853-07:00,549886.697982,0,-0.2536621,99.95159,1744041886.419574,0.0.0.0,192.0.0.2,my_iOS_device,0,1,1744041886.40017,1,0.6,0
2025-04-07T09:04:48.657-07:00,38,1744041888.236183,49.26524165079245,-122.9524359952641,84.42992,1.054666,0.6509449,250.5911429503453,27.13337090209686,7.743016359465519,14,-9999,1744041888.6385,27.11843872070312,46.19041442871094,-44.4312744140625,348.7828979492188,333.177001953125,14.16231346130371,549888.872723375,0.234710693359375,-0.0971527099609375,-1.244903564453125,549888.8441323751,0.7147985696792603,0.6571983695030212,-1.067309260368347,549888.841922375,-84.70329284667969,-85.09403991699219,-343.6592407226562,549888.862778375,-0.708161330023966,0.1089771389756243,0.1576837974978145,0.8281791210174561,0.5717936754226685,-1.02065896987915,0.07444199919700623,0.05250853300094604,-0.3917084932327271,XArbitraryCorrectedZVertical,0.09258947979951412,0.02365656591971125,-0.3411148142230425,0.9351514532374398,0.1074122339487076,-0.1570311635732651,-0.9817351102828979,27.67694091796875,45.76031494140625,-44.07513427734375,-1,2,549863.1711414166,walking,2,2025-04-07T09:04:22.941-07:00,2025-04-07T09:04:42.058-07:00,14,0.653322,0.63761,1.837094,11.42,0,0,2025-04-07T09:04:45.853-07:00,549886.697982,0,-0.2536621,99.95159,1744041886.419574,0.0.0.0,192.0.0.2,my_iOS_device,0,1,1744041886.40017,1,0.6,0
2025-04-07T09:04:48.713-07:00,39,1744041888.236183,49.26524165079245,-122.9524359952641,84.42992,1.054666,0.6509449,250.5911429503453,27.13337090209686,7.743016359465519,14,-9999,1744041888.698412,29.26409912109375,44.61325073242188,-42.557373046875,352.2245788574219,336.6186828613281,14.16211795806885,549888.9323913751,0.18585205078125,-0.11126708984375,-0.5359649658203125,549888.911259375,1.666343331336975,0.02729660272598267,-0.9594290852546692,549888.901808375,-82.40127563476562,-86.63041687011719,-342.509765625,549888.922447375,-0.7756809114258157,0.1356893944144555,0.2283798109788801,1.891264677047729,0.02331379614770412,-1.011192202568054,0.09937915205955505,0.1486562341451645,0.2555477619171143,XArbitraryCorrectedZVertical,0.1307080933951159,0.0193562732554163,-0.3677120586049618,0.9205044818610002,0.1317609548568726,-0.2263997048139572,-0.9650814533233643,29.51621246337891,43.96376800537109,-42.77926635742188,-1,2,549863.1711414166,walking,2,2025-04-07T09:04:22.941-07:00,2025-04-07T09:04:42.058-07:00,14,0.653322,0.63761,1.837094,11.42,0,0,2025-04-07T09:04:45.853-07:00,549886.697982,0,-0.2536621,99.95159,1744041886.419574,0.0.0.0,192.0.0.2,my_iOS_device,0,1,1744041886.40017,1,0.6,0
2025-04-07T09:04:48.775-07:00,40,1744041888.236183,49.26524165079245,-122.9524359952641,84.42992,1.054666,0.6509449,250.5911429503453,27.13337090209686,7.743016359465519,14,-9999,1744041888.757995,31.33309936523438,40.86602020263672,-40.00155639648438,355.6738891601562,340.0679931640625,14.16211032867432,549888.9920603751,0.1408538818359375,-0.2352142333984375,-0.3639373779296875,549888.978386375,1.884013295173645,0.4583885967731476,-0.6023553609848022,549888.961692375,-80.90451049804688,-90.36354064941406,-339.9746704101562,549888.982115375,-0.8481738400334027,0.1742255474160446,0.3415427900426104,1.811721205711365,0.4204181432723999,-0.565613329410553,-0.02171607315540314,0.1014054417610168,0.5577505230903625,XArbitraryCorrectedZVertical,0.1895806982693738,0.008477776013884483,-0.3904899002662668,0.9008357446977295,0.1633328646421432,-0.334941178560257,-0.9279745817184448,31.33309936523438,40.86602020263672,-40.00155639648438,-1,2,549863.1711414166,walking,2,2025-04-07T09:04:22.941-07:00,2025-04-07T09:04:42.058-07:00,14,0.653322,0.63761,1.837094,11.42,0,0,2025-04-07T09:04:45.853-07:00,549886.697982,0,-0.2536621,99.95159,1744041886.419574,0.0.0.0,192.0.0.2,my_iOS_device,0,1,1744041886.40017,1,0.6,0
2025-04-07T09:04:48.833-07:00,41,1744041888.236183,49.26524165079245,-122.9524359952641,84.42992,1.054666,0.6509449,250.5911429503453,27.13337090209686,7.743016359465519,14,-9999,1744041888.81763,32.86606597900391,38.13645935058594,-37.7021484375,357.2117309570312,341.6058349609375,14.16218852996826,549889.051728375,0.12548828125,-0.27154541015625,-0.3929901123046875,549889.0455133751,0.4264176189899445,-0.08425256609916687,-0.008131695911288261,549889.021578375,-79.01077270507812,-93.02299499511719,-337.3960876464844,549889.0417843751,-0.8824790615483623,0.1929626607113764,0.4082685035300531,0.5196447968482971,-0.09803301841020584,-0.06892970949411392,-0.0388294905424118,0.1526360213756561,0.5416140556335449,XArbitraryCorrectedZVertical,0.2227364118926762,-0.0008741021928599474,-0.3985906421567986,0.8896702575548042,0.1760059744119644,-0.3970207273960114,-0.9007754325866699,32.86606597900391,38.13645935058594,-37.7021484375,-1,2,549863.1711414166,walking,2,2025-04-07T09:04:22.941-07:00,2025-04-07T09:04:42.058-07:00,14,0.653322,0.63761,1.837094,11.42,0,0,2025-04-07T09:04:45.853-07:00,549886.697982,0,-0.2536621,99.95159,1744041886.419574,0.0.0.0,192.0.0.2,my_iOS_device,0,1,1744041886.40017,1,0.6,0
2025-04-07T09:04:48.898-07:00,42,1744041888.236183,49.26524165079245,-122.9524359952641,84.42992,1.054666,0.6509449,250.5911429503453,27.13337090209686,7.743016359465519,14,-9999,1744041888.877447,32.16513824462891,37.685791015625,-37.65408325195312,356.1250915527344,340.5191955566406,14.16228580474854,549889.111397375,0.1296844482421875,-0.236236572265625,-0.593170166015625,549889.079077375,-0.5466910600662231,-0.2360474169254303,0.5772138237953186,549889.081466375,-79.05513000488281,-93.70741271972656,-337.40771484375,549889.1014523751,-0.8528508697383156,0.1687433275379491,0.3954784443763569,-0.9630584716796875,-0.3565363883972168,0.7364137768745422,-0.0001648366451263428,0.1321828067302704,0.3516761064529419,XArbitraryCorrectedZVertical,0.2124016079726395,-0.005737736558899329,-0.3890433622218889,0.8963804329301426,0.154980480670929,-0.3852497339248657,-0.9097052812576294,32.16513824462891,37.685791015625,-37.65408325195312,-1,2,549863.1711414166,walking,2,2025-04-07T09:04:22.941-07:00,2025-04-07T09:04:42.058-07:00,14,0.653322,0.63761,1.837094,11.42,0,0,2025-04-07T09:04:45.853-07:00,549886.697982,0,-0.2536621,99.95159,1744041886.419574,0.0.0.0,192.0.0.2,my_iOS_device,0,1,1744041886.40017,1,0.6,0
2025-04-07T09:04:48.952-07:00,43,1744041888.236183,49.26524165079245,-122.9524359952641,84.42992,1.054666,0.6509449,250.5911429503453,27.13337090209686,7.743016359465519,14,-9999,1744041888.936964,30.35082244873047,39.31288909912109,-39.93560791015625,353.1902465820312,337.5843505859375,14.16241836547852,549889.171066375,0.2172088623046875,-0.23248291015625,-0.8473052978515625,549889.1462043751,-1.379843950271606,0.2057736665010452,0.7982921004295349,549889.141349375,-80.97882080078125,-91.94020080566406,-339.757568359375,549889.161121375,-0.790695324965336,0.1453410703475267,0.3284528220919123,-1.424818992614746,0.2949206829071045,0.8249402642250061,0.04386626183986664,0.106911301612854,0.1796352863311768,XArbitraryCorrectedZVertical,0.178066528996311,0.003306109699220989,-0.3679896255928002,0.9126144461204352,0.1370876729488373,-0.3225789368152618,-0.9365627765655518,30.35082244873047,39.31288909912109,-39.93560791015625,-1,2,549863.1711414166,walking,2,2025-04-07T09:04:22.941-07:00,2025-04-07T09:04:42.058-07:00,14,0.653322,0.63761,1.837094,11.42,0,0,2025-04-07T09:04:45.853-07:00,549886.697982,0,-0.2536621,99.95159,1744041886.419574,0.0.0.0,192.0.0.2,my_iOS_device,0,1,1744041886.40017,1,0.6,0
2025-04-07T09:04:49.011-07:00,44,1744041888.236183,49.26524165079245,-122.9524359952641,84.42992,1.054666,0.6509449,250.5911429503453,27.13337090209686,7.743016359465519,14,-9999,1744041888.996596,29.52193450927734,40.74537658691406,-42.10525512695312,349.2151794433594,333.6092834472656,14.16256523132324,549889.2307343751,0.221435546875,-0.329620361328125,-1.2088623046875,549889.213331375,-1.153890490531921,-0.009788715280592442,1.226719856262207,549889.201234375,-81.75782775878906,-90.30145263671875,-341.352294921875,549889.220790375,-0.7123872787172784,0.1297233926221563,0.258776216265323,-1.143019318580627,0.06261490285396576,1.233627319335938,0.05663369596004486,-0.06919074058532715,-0.1349397897720337,XArbitraryCorrectedZVertical,0.1430872655381988,0.01534153976930235,-0.3372292196197063,0.9303586077690726,0.1250526756048203,-0.2558977007865906,-0.9585813283920288,29.52193450927734,40.74537658691406,-42.10525512695312,-1,2,549863.1711414166,walking,2,2025-04-07T09:04:22.941-07:00,2025-04-07T09:04:42.058-07:00,14,0.653322,0.63761,1.837094,11.42,0,0,2025-04-07T09:04:45.853-07:00,549886.697982,0,-0.2536621,99.95159,1744041886.419574,0.0.0.0,192.0.0.2,my_iOS_device,0,1,1744041886.40017,1,0.6,0
2025-04-07T09:04:49.071-07:00,45,1744041888.236183,49.26524165079245,-122.9524359952641,84.42992,1.054666,0.6509449,250.5911429503453,27.13337090209686,7.743016359465519,14,-9999,1744041889.056129,28.85300445556641,43.22725677490234,-43.58596801757812,343.767333984375,328.1614379882812,14.16275024414062,549889.2904033751,0.5083160400390625,-0.010528564453125,-1.8663330078125,549889.280458375,-2.632552862167358,0.4936467409133911,1.365333199501038,549889.261117375,-82.71221923828125,-88.25483703613281,-342.9693908691406,549889.280458375,-0.6106227839012006,0.1524414382558544,0.1564907442629665,-2.637262582778931,0.4827853143215179,1.358754754066467,0.2702614367008209,0.00555381178855896,-0.8663566112518311,XArbitraryCorrectedZVertical,0.09715320860427279,0.04897561494286545,-0.2931236330893031,0.949863739691102,0.1499961316585541,-0.1558527946472168,-0.9763252735137939,28.85300445556641,43.22725677490234,-43.58596801757812,-1,2,549863.1711414166,walking,2,2025-04-07T09:04:22.941-07:00,2025-04-07T09:04:42.058-07:00,14,0.653322,0.63761,1.837094,11.42,0,0,2025-04-07T09:04:45.853-07:00,549886.697982,0,-0.2536621,99.95159,1744041886.419574,0.0.0.0,192.0.0.2,my_iOS_device,0,1,1744041886.40017,1,0.6,0
2025-04-07T09:04:49.137-07:00,46,1744041888.236183,49.26524165079245,-122.9524359952641,84.42992,1.054666,0.6509449,250.5911429503453,27.13337090209686,7.743016359465519,14,-9999,1744041889.136418,25.93727111816406,45.72531127929688,-45.66757202148438,340.0802307128906,324.4743347167969,14.16287422180176,549889.350072375,0.15484619140625,-0.0934906005859375,-1.146621704101562,549889.3475853751,0.4007894992828369,0.08009776473045349,0.6147531867027283,549889.321004375,-84.97335815429688,-85.11064147949219,-345.5862426757812,549889.340127375,-0.5510393491307735,0.1036526655903297,0.09815930811309173,0.3126794099807739,-0.3156357407569885,0.6129262447357178,0.09054285287857056,0.07036816328763962,-0.2628710865974426,XArbitraryCorrectedZVertical,0.06122213189830386,0.0364606036640393,-0.2689090050104775,0.960526186540117,0.1029690951108932,-0.09800175577402115,-0.9898449778556824,26.45188903808594,45.79899597167969,-45.91964721679688,-1,2,549863.1711414166,walking,2,2025-04-07T09:04:22.941-07:00,2025-04-07T09:04:42.058-07:00,14,0.653322,0.63761,1.837094,11.42,0,0,2025-04-07T09:04:45.853-07:00,549886.697982,0,-0.2536621,99.95159,1744041886.419574,0.0.0.0,192.0.0.2,my_iOS_device,0,1,1744041886.40017,1,0.6,0
2025-04-07T09:04:49.191-07:00,47,1744041888.236183,49.26524165079245,-122.9524359952641,84.42992,1.054666,0.6509449,250.5911429503453,27.13337090209686,7.743016359465519,14,-9999,1744041889.175573,26.56535339355469,44.91500091552734,-45.28607177734375,338.84423828125,323.2383422851562,14.16289043426514,549889.409736375,0.236541748046875,-0.1135406494140625,-0.9247589111328125,549889.381149375,0.07641221582889557,0.7500036954879761,0.5530924797058105,549889.380894375,-84.98963928222656,-86.10818481445312,-344.9336547851562,549889.399791375,-0.518851357567088,0.1296988307012317,0.1146095031891627,0.0887814536690712,0.4096049666404724,0.4193511605262756,0.1411968320608139,0.01493257284164429,-0.06600618362426758,XArbitraryCorrectedZVertical,0.07183710174835335,0.04787144904967603,-0.2519787335860214,0.9638747457939968,0.1284870058298111,-0.1143587604165077,-0.9850955009460449,26.56535339355469,44.91500091552734,-45.28607177734375,-1,2,549863.1711414166,walking,2,2025-04-07T09:04:22.941-07:00,2025-04-07T09:04:42.058-07:00,14,0.653322,0.63761,1.837094,11.42,0,0,2025-04-07T09:04:45.853-07:00,549886.697982,0,-0.2536621,99.95159,1744041886.419574,0.0.0.0,192.0.0.2,my_iOS_device,0,1,1744041886.40017,1,0.6,0
2025-04-07T09:04:49.260-07:00,48,1744041888.236183,49.26524165079245,-122.9524359952641,84.42992,1.054666,0.6509449,250.5911429503453,27.13337090209686,7.743016359465519,14,-9999,1744041889.255228,26.65250396728516,42.58503723144531,-44.748046875,337.0869750976562,321.4810791015625,14.16292762756348,549889.4694053751,0.0238800048828125,-0.190887451171875,-0.410919189453125,549889.448272375,0.7402477264404297,-0.2282888293266296,0.2975970506668091,549889.440779375,-84.64677429199219,-87.56021118164062,-344.7638549804688,549889.459460375,-0.5030018925192418,0.1235279790494891,0.1464077964464337,0.7656046748161316,-0.1510981917381287,0.2869122624397278,-0.05217844992876053,-0.02090844511985779,0.4867680072784424,XArbitraryCorrectedZVertical,0.08602206374774016,0.04145635477224442,-0.2433457713109302,0.9652277507946911,0.121895857155323,-0.1458853036165237,-0.9817631244659424,26.74469757080078,43.31729125976562,-45.12506103515625,-1,2,549863.1711414166,walking,2,2025-04-07T09:04:22.941-07:00,2025-04-07T09:04:42.058-07:00,14,0.653322,0.63761,1.837094,11.42,0,0,2025-04-07T09:04:45.853-07:00,549886.697982,0,-0.2536621,99.95159,1744041886.419574,0.0.0.0,192.0.0.2,my_iOS_device,0,1,1744041886.40017,1,0.6,0
2025-04-07T09:04:49.310-07:00,49,1744041888.236183,49.26524165079245,-122.9524359952641,84.42992,1.054666,0.6509449,250.5911429503453,27.13337090209686,7.743016359465519,14,-9999,1744041889.29684,27.07771301269531,41.67844390869141,-43.9776611328125,336.2880859375,320.6821899414062,14.1629810333252,549889.5290743751,-0.0739288330078125,-0.2410736083984375,-0.4001617431640625,549889.515399375,0.1257613897323608,0.5748302936553955,0.4373592138290405,549889.500663375,-84.76939392089844,-89.70433044433594,-343.7188110351562,549889.519129375,-0.4860942246130496,0.1358789751195027,0.1780219762299911,0.04489108547568321,0.5961052179336548,0.4532660245895386,-0.1918988823890686,-0.06128957867622375,0.623927891254425,XArbitraryCorrectedZVertical,0.1023549352886724,0.04428724444730245,-0.2332981628442996,0.9659887099109579,0.1333203911781311,-0.1770831644535065,-0.9751242399215698,27.07771301269531,41.67844390869141,-43.9776611328125,-1,2,549863.1711414166,walking,2,2025-04-07T09:04:22.941-07:00,2025-04-07T09:04:42.058-07:00,14,0.653322,0.63761,1.837094,11.42,0,0,2025-04-07T09:04:45.853-07:00,549886.697982,0,-0.2536621,99.95159,1744041886.419574,0.0.0.0,192.0.0.2,my_iOS_device,0,1,1744041886.40017,1,0.6,0
2025-04-07T09:04:49.378-07:00,50,1744041888.236183,49.26524165079245,-122.9524359952641,84.42992,1.054666,0.6509449,250.5911429503453,27.13337090209686,7.743016359465519,14,-9999,1744041889.374564,27.97235870361328,43.12770843505859,-43.91357421875,333.8214111328125,318.2155151367188,14.1631383895874,549889.588742375,-0.0710601806640625,-0.145843505859375,-0.69439697265625,549889.5825273751,-1.303637027740479,0.5715844035148621,0.3926407694816589,549889.5605423751,-83.95979309082031,-89.49423217773438,-343.673095703125,549889.5787973751,-0.4530849346158631,0.1648300651895381,0.1467599042455467,-1.233809113502502,0.5605117082595825,0.4055817723274231,-0.2416665107011795,-0.03899270296096802,0.3769803643226624,XArbitraryCorrectedZVertical,0.08963887195170046,0.06359130387524031,-0.217363775395151,0.9698835376341276,0.1623208075761795,-0.1462336480617523,-0.9758420586585999,27.57190704345703,41.81307983398438,-44.17987060546875,-1,2,549863.1711414166,walking,2,2025-04-07T09:04:22.941-07:00,2025-04-07T09:04:42.058-07:00,14,0.653322,0.63761,1.837094,11.42,0,0,2025-04-07T09:04:45.853-07:00,549886.697982,0,-0.2536621,99.95159,1744041886.419574,0.0.0.0,192.0.0.2,my_iOS_device,0,1,1744041886.40017,1,0.6,0
2025-04-07T09:04:49.616-07:00,51,1744041889.236181,49.26522163177361,-122.952444437245,84.48454,1.297843,0.567246,250.5757066571405,18.84267528494745,6.231019549712678,14,-9999,1744041889.414237,27.80754089355469,46.02809906005859,-45.86227416992188,333.2286071777344,317.6227111816406,14.16324043273926,549889.648411375,-0.097991943359375,-0.0633087158203125,-0.9117889404296875,549889.616090375,-1.856206178665161,0.004967061802744865,0.05239689350128174,549889.6204253751,-83.78897094726562,-85.73825073242188,-345.1201171875,549889.6384663751,-0.4264285796600776,0.1705833608320332,0.04941438667912576,-1.620953321456909,-0.3571499288082123,0.02219776622951031,-0.2277928590774536,-0.01528764516115189,0.09284931421279907,XArbitraryCorrectedZVertical,0.04207804506139368,0.07802530448206704,-0.2087120419625673,0.973951147257558,0.1695500612258911,-0.04939427971839905,-0.9842829704284668,27.80754089355469,46.02809906005859,-45.86227416992188,-1,2,549863.1711414166,walking,2,2025-04-07T09:04:22.941-07:00,2025-04-07T09:04:42.058-07:00,14,0.653322,0.63761,1.837094,11.42,0,0,2025-04-07T09:04:45.853-07:00,549886.697982,0,-0.2536621,99.95159,1744041886.419574,0.0.0.0,192.0.0.2,my_iOS_device,0,1,1744041886.40017,1,0.6,0
2025-04-07T09:04:49.673-07:00,52,1744041889.236181,49.26522163177361,-122.952444437245,84.48454,1.297843,0.567246,250.5757066571405,18.84267528494745,6.231019549712678,14,-9999,1744041889.668068,26.48451995849609,49.22342681884766,-46.92694091796875,333.1670837402344,317.5611877441406,14.16337203979492,549889.708080375,-0.123138427734375,0.058990478515625,-1.136032104492188,549889.6832183751,-0.7511299252510071,-0.4295029044151306,-0.2100999653339386,549889.6803103751,-84.89112854003906,-81.85337829589844,-346.5885925292969,549889.698135375,-0.423408868956912,0.1441721200411994,-0.01313312011350203,-0.5335979461669922,-0.3355181813240051,-0.4264319837093353,-0.2590782642364502,0.02910366281867027,-0.05379509925842285,XArbitraryCorrectedZVertical,0.008730517820460417,0.0717903535019012,-0.2100387313947662,0.9750147308606217,0.1436607986688614,0.01313274260610342,-0.9895398616790771,26.48451995849609,49.22342681884766,-46.92694091796875,-1,2,549863.1711414166,walking,2,2025-04-07T09:04:22.941-07:00,2025-04-07T09:04:42.058-07:00,14,0.653322,0.63761,1.837094,11.42,0,0,2025-04-07T09:04:45.853-07:00,549886.697982,0,-0.2536621,99.95159,1744041886.419574,0.0.0.0,192.0.0.2,my_iOS_device,0,1,1744041886.40017,1,0.6,0
2025-04-07T09:04:49.732-07:00,53,1744041889.236181,49.26522163177361,-122.952444437245,84.48454,1.297843,0.567246,250.5757066571405,18.84267528494745,6.231019549712678,14,-9999,1744041889.718575,26.11351776123047,51.97087097167969,-47.64749145507812,335.6701049804688,320.064208984375,14.16349983215332,549889.7677483751,-0.0683441162109375,0.078338623046875,-1.650177001953125,549889.750345375,-0.5760819315910339,-0.5594452023506165,-1.264695286750793,549889.7401953751,-85.26185607910156,-79.43423461914062,-347.4966735839844,549889.757803375,-0.4717242329924191,0.1212966921500673,-0.05278717388745505,-0.5745095014572144,-0.6207247376441956,-1.337861776351929,-0.1501125395298004,0.04501573741436005,-0.5721761584281921,XArbitraryCorrectedZVertical,-0.01145391244315725,0.06506815248433864,-0.2347257140711121,0.969813816236017,0.1208309307694435,0.05276266112923622,-0.9912698864936829,26.11351776123047,51.97087097167969,-47.64749145507812,-1,2,549863.1711414166,walking,2,2025-04-07T09:04:22.941-07:00,2025-04-07T09:04:42.058-07:00,14,0.653322,0.63761,1.837094,11.42,0,0,2025-04-07T09:04:45.853-07:00,549886.697982,0,-0.2536621,99.95159,1744041886.419574,0.0.0.0,192.0.0.2,my_iOS_device,0,1,1744041886.40017,1,0.6,0
2025-04-07T09:04:49.792-07:00,54,1744041889.236181,49.26522163177361,-122.952444437245,84.48454,1.297843,0.567246,250.5757066571405,18.84267528494745,6.231019549712678,14,-9999,1744041889.777187,25.41024780273438,54.70379638671875,-48.93701171875,340.1808776855469,324.5749816894531,14.16362571716309,549889.8274173751,-0.0126953125,0.229248046875,-1.811203002929688,549889.817472375,-0.4051267206668854,-0.4678265750408173,-1.495062351226807,549889.800079375,-86.25791931152344,-76.83181762695312,-348.1197509765625,549889.817472375,-0.551497505818955,0.08569654055956535,-0.09813123972552025,-0.4098367393016815,-0.4786880910396576,-1.501641273498535,-0.1210685819387436,0.08598622679710388,-0.8348942995071411,XArbitraryCorrectedZVertical,-0.03550115688361744,0.05450866663577884,-0.2737117257283619,0.9596095269382672,0.08517990261316299,0.09797381609678268,-0.9915369749069214,25.41024780273438,54.70379638671875,-48.93701171875,-1,2,549863.1711414166,walking,2,2025-04-07T09:04:22.941-07:00,2025-04-07T09:04:42.058-07:00,14,0.653322,0.63761,1.837094,11.42,0,0,2025-04-07T09:04:45.853-07:00,549887.248931,0,-0.3434982,99.95268,1744041886.419574,0.0.0.0,192.0.0.2,my_iOS_device,0,1,1744041886.40017,1,0.6,0
2025-04-07T09:04:49.851-07:00,55,1744041889.236181,49.26522163177361,-122.952444437245,84.48454,1.297843,0.567246,250.5757066571405,18.84267528494745,6.231019549712678,14,-9999,1744041889.836756,25.38057708740234,56.17112731933594,-49.28652954101562,345.6259765625,330.0200805664062,14.16368103027344,549889.887086375,0.1782073974609375,0.270599365234375,-1.693618774414062,549889.8846003751,0.6709440350532532,-0.1771606653928757,-1.647810935974121,549889.8599663751,-86.4771728515625,-74.97782897949219,-349.1321716308594,549889.877141375,-0.6477067603347541,0.05532975328119208,-0.09608657816594206,0.5243858098983765,-0.213254988193512,-1.653166174888611,0.0574108213186264,0.1757898032665253,-0.7915363907814026,XArbitraryCorrectedZVertical,-0.03671858483644934,0.04146984919892929,-0.3189925395225784,0.9461373087202581,0.0550464354455471,0.0959387943148613,-0.9938639998435974,25.38057708740234,56.17112731933594,-49.28652954101562,-1,2,549863.1711414166,walking,2,2025-04-07T09:04:22.941-07:00,2025-04-07T09:04:42.058-07:00,14,0.653322,0.63761,1.837094,11.42,0,0,2025-04-07T09:04:45.853-07:00,549887.248931,0,-0.3434982,99.95268,1744041886.419574,0.0.0.0,192.0.0.2,my_iOS_device,0,1,1744041886.40017,1,0.6,0
2025-04-07T09:04:49.913-07:00,56,1744041889.236181,49.26522163177361,-122.952444437245,84.48454,1.297843,0.567246,250.5757066571405,18.84267528494745,6.231019549712678,14,-9999,1744041889.896708,25.94216156005859,55.10699462890625,-49.22549438476562,351.4183044433594,335.8124084472656,14.16237831115723,549889.946754375,0.277923583984375,0.1094207763671875,-1.035110473632812,549889.918163375,1.518346667289734,-0.1285579800605774,-1.618235230445862,549889.919849375,-85.52810668945312,-75.87811279296875,-348.6811218261719,549889.9368103751,-0.7490165057701538,0.03862092267430772,-0.02705519220512462,2.025682687759399,-0.2705274522304535,-1.653830647468567,0.2317274957895279,0.1317616552114487,-0.2414373159408569,XArbitraryCorrectedZVertical,-0.005524265808899775,0.02291676868325932,-0.3659563352396942,0.930333428645976,0.03859719261527061,0.027051892131567,-0.9988886117935181,25.94216156005859,55.10699462890625,-49.22549438476562,-1,2,549863.1711414166,walking,2,2025-04-07T09:04:22.941-07:00,2025-04-07T09:04:42.058-07:00,14,0.653322,0.63761,1.837094,11.42,0,0,2025-04-07T09:04:45.853-07:00,549887.248931,0,-0.3434982,99.95268,1744041886.419574,0.0.0.0,192.0.0.2,my_iOS_device,0,1,1744041886.40017,1,0.6,0
2025-04-07T09:04:49.972-07:00,57,1744041889.236181,49.26522163177361,-122.952444437245,84.48454,1.297843,0.567246,250.5757066571405,18.84267528494745,6.231019549712678,14,-9999,1744041889.956236,26.51996612548828,49.621826171875,-47.13174438476562,357.0967712402344,341.4908752441406,14.16111183166504,549890.006423375,0.2042694091796875,-0.110198974609375,-0.4025726318359375,549889.9852913751,3.198766231536865,-0.05258278548717499,-1.423422813415527,549889.979729375,-85.29469299316406,-80.92010498046875,-346.8760986328125,549889.996478375,-0.8467524582345526,0.03175725530002656,0.136254368380232,3.303122997283936,0.06653601676225662,-1.310370802879333,0.19161057472229,0.06532236933708191,0.4815499186515808,XArbitraryCorrectedZVertical,0.06856435526430615,-0.01352179319418116,-0.4088507370866818,0.9099215575277098,0.03145763278007507,-0.1358331590890884,-0.9902321696281433,26.51996612548828,49.621826171875,-47.13174438476562,-1,2,549863.1711414166,walking,2,2025-04-07T09:04:22.941-07:00,2025-04-07T09:04:42.058-07:00,14,0.653322,0.63761,1.837094,11.42,0,0,2025-04-07T09:04:45.853-07:00,549887.248931,0,-0.3434982,99.95268,1744041886.419574,0.0.0.0,192.0.0.2,my_iOS_device,0,1,1744041886.40017,1,0.6,0
2025-04-07T09:04:50.033-07:00,58,1744041889.236181,49.26522163177361,-122.952444437245,84.48454,1.297843,0.567246,250.5757066571405,18.84267528494745,6.231019549712678,14,-9999,1744041890.015844,28.68349456787109,41.96338653564453,-43.848876953125,0.507105827331543,344.9012145996094,14.1609411239624,549890.0660923751,0.10479736328125,-0.2269744873046875,-0.2568817138671875,549890.052418375,2.710333824157715,0.4063634872436523,-0.505911648273468,549890.039614375,-83.16610717773438,-88.23565673828125,-343.9106750488281,549890.056147375,-0.9114424104042979,0.0611750663508832,0.3194842880858147,2.618314266204834,0.4131975769996643,-0.4529411494731903,0.08326837420463562,0.1120507121086121,0.7030994892120361,XArbitraryCorrectedZVertical,0.1560518142509986,-0.04286077413427408,-0.4299352910344348,0.8882378885509894,0.05804323777556419,-0.3140769898891449,-0.9476215839385986,28.68349456787109,41.96338653564453,-43.848876953125,-1,2,549863.1711414166,walking,2,2025-04-07T09:04:22.941-07:00,2025-04-07T09:04:42.058-07:00,14,0.653322,0.63761,1.837094,11.42,0,0,2025-04-07T09:04:45.853-07:00,549887.248931,0,-0.3434982,99.95268,1744041886.419574,0.0.0.0,192.0.0.2,my_iOS_device,0,1,1744041886.40017,1,0.6,0
2025-04-07T09:04:50.090-07:00,59,1744041889.236181,49.26522163177361,-122.952444437245,84.48454,1.297843,0.567246,250.5757066571405,18.84267528494745,6.231019549712678,14,-9999,1744041890.075762,29.88760375976562,37.62906646728516,-41.1480712890625,1.077052116394043,345.4711608886719,14.16104221343994,549890.1257613751,0.2294769287109375,-0.1161346435546875,-0.4369354248046875,549890.119545375,0.1668315976858139,-0.4044305682182312,0.1720982640981674,549890.099500375,-81.50564575195312,-93.3973388671875,-340.2120056152344,549890.115816375,-0.9260713398104524,0.08260799878741433,0.4164398173261708,0.3669698536396027,-0.2905248403549194,0.15900057554245,0.1254351884126663,0.1877255439758301,0.5445491075515747,XArbitraryCorrectedZVertical,0.202838995361388,-0.05610921999070958,-0.4290086040805028,0.8784416315498346,0.07546199858188629,-0.4045071005821228,-0.9114161729812622,29.88760375976562,37.62906646728516,-41.1480712890625,-1,2,549863.1711414166,walking,2,2025-04-07T09:04:22.941-07:00,2025-04-07T09:04:42.058-07:00,14,0.653322,0.63761,1.837094,11.42,0,0,2025-04-07T09:04:45.853-07:00,549887.248931,0,-0.3434982,99.95268,1744041886.419574,0.0.0.0,192.0.0.2,my_iOS_device,0,1,1744041886.40017,1,0.6,0
2025-04-07T09:04:50.150-07:00,60,1744041889.236181,49.26522163177361,-122.952444437245,84.48454,1.297843,0.567246,250.5757066571405,18.84267528494745,6.231019549712678,14,-9999,1744041890.135162,27.53586578369141,39.07393646240234,-42.57150268554688,0.877741813659668,345.2718505859375,14.16116237640381,549890.185429375,0.18267822265625,-0.1844329833984375,-0.5497589111328125,549890.153109375,-1.253631114959717,-1.103930830955505,0.2114776223897934,549890.159389375,-83.72767639160156,-92.22071838378906,-341.9965209960938,549890.175485375,-0.9077174873702371,0.02422645931700489,0.3648833918351393,-1.378579020500183,-0.7529093623161316,0.6434425115585327,0.1773065775632858,0.1645644009113312,0.406059205532074,XArbitraryCorrectedZVertical,0.1682741911079368,-0.06883435814047363,-0.4291535995630582,0.8847445306173739,0.02262930572032928,-0.3568403720855713,-0.933891236782074,27.53586578369141,39.07393646240234,-42.57150268554688,-1,2,549863.1711414166,walking,2,2025-04-07T09:04:22.941-07:00,2025-04-07T09:04:42.058-07:00,14,0.653322,0.63761,1.837094,11.42,0,0,2025-04-07T09:04:45.853-07:00,549887.248931,0,-0.3434982,99.95268,1744041886.419574,0.0.0.0,192.0.0.2,my_iOS_device,0,1,1744041886.40017,1,0.6,0
2025-04-07T09:04:50.209-07:00,61,1744041889.236181,49.26522163177361,-122.952444437245,84.48454,1.297843,0.567246,250.5757066571405,18.84267528494745,6.231019549712678,14,-9999,1744041890.194805,25.52106475830078,39.96612548828125,-44.26998901367188,357.4968566894531,341.8909606933594,14.16130065917969,549890.245098375,0.0784149169921875,-0.0604705810546875,-1.056472778320312,549890.220236375,-0.6012527942657471,0.09771617501974106,1.297968029975891,549890.2192823751,-85.6400146484375,-91.0042724609375,-343.9849243164062,549890.2351533751,-0.8383689979653103,-0.009489297728301897,0.3153140746940135,-0.7618238925933838,0.1812721937894821,1.301783800125122,0.09198333323001862,0.1964219510555267,0.0269501805305481,XArbitraryCorrectedZVertical,0.1415026489521497,-0.06818277723932728,-0.4026437456833688,0.901779370479122,-0.009021330624818802,-0.3101150691509247,-0.9506562352180481,25.52106475830078,39.96612548828125,-44.26998901367188,-1,2,549863.1711414166,walking,2,2025-04-07T09:04:22.941-07:00,2025-04-07T09:04:42.058-07:00,14,0.653322,0.63761,1.837094,11.42,0,0,2025-04-07T09:04:45.853-07:00,549887.248931,0,-0.3434982,99.95268,1744041886.419574,0.0.0.0,192.0.0.2,my_iOS_device,0,1,1744041886.40017,1,0.6,0
2025-04-07T09:04:50.271-07:00,62,1744041889.236181,49.26522163177361,-122.952444437245,84.48454,1.297843,0.567246,250.5757066571405,18.84267528494745,6.231019549712678,14,-9999,1744041890.254401,24.18465423583984,40.30187225341797,-45.15386962890625,355.0377197265625,339.4318237304688,14.16142654418945,549890.304767375,0.109222412109375,-0.226104736328125,-1.340377807617188,549890.2873643751,-0.391150176525116,0.1454179137945175,0.1959687024354935,549890.279173375,-87.62069702148438,-90.92207336425781,-344.7353820800781,549890.2948223751,-0.7994128012912242,-0.01981982999467148,0.2859061284110582,-0.6273104548454285,0.3231836259365082,0.2628369629383087,0.1040359735488892,0.1701648235321045,-0.2368115782737732,XArbitraryCorrectedZVertical,0.1274133097323209,-0.06447338513281578,-0.3864600426816849,0.9111847835492168,-0.0190140288323164,-0.2820269167423248,-0.9592180848121643,24.18465423583984,40.30187225341797,-45.15386962890625,-1,2,549863.1711414166,walking,2,2025-04-07T09:04:22.941-07:00,2025-04-07T09:04:42.058-07:00,14,0.653322,0.63761,1.837094,11.42,0,0,2025-04-07T09:04:45.853-07:00,549887.248931,0,-0.3434982,99.95268,1744041886.419574,0.0.0.0,192.0.0.2,my_iOS_device,0,1,1744041886.40017,1,0.6,0
2025-04-07T09:04:50.332-07:00,63,1744041889.236181,49.26522163177361,-122.952444437245,84.48454,1.297843,0.567246,250.5757066571405,18.84267528494745,6.231019549712678,14,-9999,1744041890.314161,24.45426940917969,42.05544281005859,-45.62826538085938,352.98291015625,337.3770141601562,14.1615514755249,549890.364436375,0.138336181640625,-0.1196441650390625,-1.375213623046875,549890.354491375,-0.4774885475635529,0.01126810070127249,0.8332410454750061,549890.3390693751,-87.18003845214844,-89.0372314453125,-345.2653198242188,549890.354491375,-0.7618109870464789,-0.01642949255408968,0.228005482928181,-0.4821995496749878,0.0004063975065946579,0.8266609907150269,0.1964081972837448,0.110907569527626,-0.4705160856246948,XArbitraryCorrectedZVertical,0.102565259760133,-0.04986502511355566,-0.3702030481311208,0.9219238023442071,-0.0160035640001297,-0.2260350733995438,-0.9739876985549927,24.22477722167969,42.12594604492188,-46.0401611328125,-1,2,549863.1711414166,walking,2,2025-04-07T09:04:22.941-07:00,2025-04-07T09:04:42.058-07:00,14,0.653322,0.63761,1.837094,11.42,0,0,2025-04-07T09:04:45.853-07:00,549887.248931,0,-0.3434982,99.95268,1744041886.419574,0.0.0.0,192.0.0.2,my_iOS_device,0,1,1744041886.40017,1,0.6,0
2025-04-07T09:04:50.391-07:00,64,1744041889.236181,49.26522163177361,-122.952444437245,84.48454,1.297843,0.567246,250.5757066571405,18.84267528494745,6.231019549712678,14,-9999,1744041890.374039,23.53572845458984,42.79492950439453,-46.21502685546875,350.3330383300781,334.7271423339844,14.16164875030518,549890.42410575,0.118988037109375,-0.1934356689453125,-1.12451171875,549890.4216187501,-0.8885586261749268,0.593396782875061,0.6851645112037659,549890.3989577501,-88.02517700195312,-88.21476745605469,-345.6942138671875,549890.41416075,-0.7166084575827684,-0.01278382869539937,0.2061696977348799,-0.7489950060844421,0.4974596202373505,0.6733564734458923,0.1124272793531418,0.02070654928684235,-0.2163109183311462,XArbitraryCorrectedZVertical,0.09413572675581516,-0.0420399202499581,-0.3494338751936645,0.9312717251508859,-0.01251275464892387,-0.2047122269868851,-0.978742241859436,23.5128173828125,42.89099884033203,-46.4449462890625,-1,2,549863.1711414166,walking,2,2025-04-07T09:04:22.941-07:00,2025-04-07T09:04:42.058-07:00,14,0.653322,0.63761,1.837094,11.42,0,0,2025-04-07T09:04:45.853-07:00,549887.248931,0,-0.3434982,99.95268,1744041886.419574,0.0.0.0,192.0.0.2,my_iOS_device,0,1,1744041886.40017,1,0.6,0
2025-04-07T09:04:50.449-07:00,65,1744041889.236181,49.26522163177361,-122.952444437245,84.48454,1.297843,0.567246,250.5757066571405,18.84267528494745,6.231019549712678,14,-9999,1744041890.4338,24.53815460205078,44.12935638427734,-46.33694458007812,348.3083190917969,332.7024230957031,14.16174125671387,549890.48377375,0.106719970703125,-0.2171783447265625,-0.68890380859375,549890.45518275,-0.6917374730110168,0.7307245135307312,0.4540021121501923,549890.45884175,-86.88009643554688,-86.7877197265625,-345.9690856933594,549890.4738297501,-0.684779818334478,0.02211499955358902,0.1613173603436868,-0.1575562506914139,0.8609025478363037,0.237092524766922,0.0958496630191803,-0.02607259154319763,0.1758010983467102,XArbitraryCorrectedZVertical,0.07959014042186983,-0.01666768299471524,-0.3337880502712526,0.9391342599528802,0.02182609215378761,-0.1606186032295227,-0.9867752194404602,24.69904327392578,44.43279266357422,-46.60293579101562,-1,2,549863.1711414166,walking,2,2025-04-07T09:04:22.941-07:00,2025-04-07T09:04:42.058-07:00,14,0.653322,0.63761,1.837094,11.42,0,0,2025-04-07T09:04:45.853-07:00,549887.248931,0,-0.3434982,99.95268,1744041886.419574,0.0.0.0,192.0.0.2,my_iOS_device,0,1,1744041886.40017,1,0.6,0
2025-04-07T09:04:50.510-07:00,66,1744041889.236181,49.26522163177361,-122.952444437245,84.48454,1.297843,0.567246,250.5757066571405,18.84267528494745,6.231019549712678,14,-9999,1744041890.493463,27.36844635009766,44.36746215820312,-45.36187744140625,347.4873657226562,331.8814697265625,14.16184997558594,549890.54344275,0.0998077392578125,-0.3638916015625,-0.58575439453125,549890.5223097501,0.595417320728302,1.601144075393677,0.07467024028301239,549890.51872375,-83.9051513671875,-86.796875,-344.8653564453125,549890.5334977501,-0.6802626442909091,0.1004142255503604,0.1855364406089673,0.4987500607967377,1.587109088897705,0.05765312910079956,-0.01032930612564087,-0.1634722948074341,0.4065365195274353,XArbitraryCorrectedZVertical,0.1038887854400889,0.01624230578672652,-0.3273751479648117,0.9390255533864138,0.09852509200572968,-0.1844737976789474,-0.9778866171836853,28.35716247558594,44.00809478759766,-45.0020751953125,-1,2,549863.1711414166,walking,2,2025-04-07T09:04:22.941-07:00,2025-04-07T09:04:42.058-07:00,14,0.653322,0.63761,1.837094,11.42,0,0,2025-04-07T09:04:45.853-07:00,549887.248931,0,-0.3434982,99.95268,1744041886.419574,0.0.0.0,192.0.0.2,my_iOS_device,0,1,1744041886.40017,1,0.6,0
2025-04-07T09:04:50.568-07:00,67,1744041890.369122,49.26521113302231,-122.9524493604238,84.50201,1.297843,0.5151812,257.0594763996315,18.649823478998,6.128472496601499,14,-9999,1744041890.552829,31.58449554443359,43.54277038574219,-43.09249877929688,346.5453491210938,330.939453125,14.16197681427002,549890.60311175,0.0413055419921875,-0.365570068359375,-0.680633544921875,549890.5894377501,-0.2028883993625641,0.8889299035072327,0.1582271903753281,549890.57861075,-79.61090087890625,-87.65800476074219,-342.60693359375,549890.59316675,-0.671328294613786,0.176532464925778,0.1943494488964036,-0.2478700429201126,0.8282701969146729,0.1672056466341019,-0.1024865359067917,-0.1596396118402481,0.3001837134361267,XArbitraryCorrectedZVertical,0.120150464952747,0.05100517486504326,-0.3184907150808176,0.9388961652400812,0.1723107397556305,-0.1931282728910446,-0.9659246802330017,31.84526824951172,43.24642181396484,-43.06878662109375,-1,2,549863.1711414166,walking,2,2025-04-07T09:04:22.941-07:00,2025-04-07T09:04:42.058-07:00,14,0.653322,0.63761,1.837094,11.42,0,0,2025-04-07T09:04:45.853-07:00,549887.248931,0,-0.3434982,99.95268,1744041886.419574,0.0.0.0,192.0.0.2,my_iOS_device,0,1,1744041886.40017,1,0.6,0
2025-04-07T09:04:50.627-07:00,68,1744041890.369122,49.26521113302231,-122.9524493604238,84.50201,1.297843,0.5151812,257.0594763996315,18.649823478998,6.128472496601499,14,-9999,1744041890.613628,32.93399047851562,43.70213317871094,-42.86190795898438,345.3069763183594,329.7010803222656,14.1620922088623,549890.6627807501,-0.0615386962890625,-0.266754150390625,-0.85638427734375,549890.65656475,-0.1103374287486076,0.04471607133746147,0.1760953962802887,549890.63849775,-78.53280639648438,-87.40020751953125,-342.5403442382812,549890.65283575,-0.6504302241443493,0.1997483237555836,0.1781789768358822,-0.1699046343564987,0.0721919983625412,0.1989354938268661,-0.2222282886505127,-0.09670330584049225,0.1541746258735657,XArbitraryCorrectedZVertical,0.1156195168559242,0.06582108932786344,-0.308253375749607,0.9419552481459327,0.1952812522649765,-0.1772376745939255,-0.9645994305610657,33.01851654052734,44.26376342773438,-42.73464965820312,-1,2,549863.1711414166,walking,2,2025-04-07T09:04:22.941-07:00,2025-04-07T09:04:42.058-07:00,14,0.653322,0.63761,1.837094,11.42,0,0,2025-04-07T09:04:45.853-07:00,549887.248931,0,-0.3434982,99.95268,1744041886.419574,0.0.0.0,192.0.0.2,my_iOS_device,0,1,1744041886.40017,1,0.6,0
2025-04-07T09:04:50.687-07:00,69,1744041890.369122,49.26521113302231,-122.9524493604238,84.50201,1.297843,0.5151812,257.0594763996315,18.649823478998,6.128472496601499,14,-9999,1744041890.67239,32.42163848876953,43.34709167480469,-42.94778442382812,345.35791015625,329.7520141601562,14.16220951080322,549890.7224497501,-0.1423492431640625,-0.364166259765625,-1.039291381835938,549890.6901287501,0.4066716134548187,-0.2552946209907532,-0.08089005202054977,549890.6983857501,-79.24148559570312,-87.87019348144531,-342.593994140625,549890.71250475,-0.6540882251743084,0.1885411995010842,0.1918525577695071,0.3380042910575867,-0.4616095721721649,-0.1719563454389572,-0.3136107921600342,-0.1188009083271027,-0.01390814781188965,XArbitraryCorrectedZVertical,0.1203999302937542,0.05809989427481242,-0.3098105625760355,0.9413531666551993,0.1839873790740967,-0.1906777918338776,-0.9642565250396729,32.23837280273438,43.16704559326172,-43.325927734375,-1,2,549863.1711414166,walking,2,2025-04-07T09:04:22.941-07:00,2025-04-07T09:04:42.058-07:00,14,0.653322,0.63761,1.837094,11.42,0,0,2025-04-07T09:04:45.853-07:00,549887.248931,0,-0.3434982,99.95268,1744041886.419574,0.0.0.0,192.0.0.2,my_iOS_device,0,1,1744041886.40017,1,0.6,0
2025-04-07T09:04:50.749-07:00,70,1744041890.369122,49.26521113302231,-122.9524493604238,84.50201,1.297843,0.5151812,257.0594763996315,18.649823478998,6.128472496601499,14,-9999,1744041890.732139,31.23448944091797,43.11424255371094,-43.75592041015625,346.0294189453125,330.4235229492188,14.16233062744141,549890.78211775,-0.2504119873046875,-0.457916259765625,-1.456710815429688,549890.75725575,-0.2785911560058594,-0.8792455792427063,-0.1407049149274826,549890.75826775,-80.38157653808594,-87.95964050292969,-343.4725952148438,549890.77217375,-0.6607067805582878,0.1491420666266185,0.183614020693984,-0.5348524451255798,-0.7666594982147217,-0.05522205680608749,-0.3425794839859009,-0.2345148921012878,-0.3343953490257263,XArbitraryCorrectedZVertical,0.1105448212887633,0.040521017504731,-0.3156527225149511,0.9415419218592018,0.146092027425766,-0.1825840324163437,-0.9722757935523987,30.71882629394531,43.48539733886719,-43.98300170898438,-1,2,549863.1711414166,walking,2,2025-04-07T09:04:22.941-07:00,2025-04-07T09:04:42.058-07:00,14,0.653322,0.63761,1.837094,11.42,0,0,2025-04-07T09:04:45.853-07:00,549887.248931,0,-0.3434982,99.95268,1744041886.419574,0.0.0.0,192.0.0.2,my_iOS_device,0,1,1744041886.40017,1,0.6,0
2025-04-07T09:04:50.806-07:00,71,1744041890.369122,49.26521113302231,-122.9524493604238,84.50201,1.297843,0.5151812,257.0594763996315,18.649823478998,6.128472496601499,14,-9999,1744041890.79179,29.03373718261719,45.87654113769531,-45.40011596679688,345.5193786621094,329.9134826660156,14.16246318817139,549890.84178675,-0.0662384033203125,0.2181549072265625,-2.073577880859375,549890.82438375,-1.73581850528717,-0.4491192102432251,0.2312531918287277,549890.81814775,-82.64778137207031,-84.93069458007812,-345.1485595703125,549890.8318427501,-0.6361418437029369,0.1227984712969743,0.1016034704326623,-1.438222646713257,-0.7827111482620239,-0.008134578354656696,-0.2649553120136261,0.08142454922199249,-1.049727439880371,XArbitraryCorrectedZVertical,0.06730675979789429,0.04235693625402877,-0.3087832117891381,0.9478020439558851,0.1218583732843399,-0.101428747177124,-0.9873513579368591,28.97080993652344,46.61114501953125,-45.51766967773438,-1,2,549863.1711414166,walking,2,2025-04-07T09:04:22.941-07:00,2025-04-07T09:04:42.058-07:00,14,0.653322,0.63761,1.837094,11.42,0,0,2025-04-07T09:04:45.853-07:00,549888.249502,0,-0.396347,99.95332,1744041886.419574,0.0.0.0,192.0.0.2,my_iOS_device,0,1,1744041886.40017,1,0.6,0
2025-04-07T09:04:50.866-07:00,72,1744041890.369122,49.26521113302231,-122.9524493604238,84.50201,1.297843,0.5151812,257.0594763996315,18.649823478998,6.128472496601499,14,-9999,1744041890.851641,26.27299499511719,47.80360412597656,-47.13003540039062,348.0912780761719,332.4853820800781,14.16253089904785,549890.90145575,-0.09246826171875,0.1226043701171875,-1.59716796875,549890.8915107501,0.7159144282341003,-1.429538249969482,-1.274758577346802,549890.8780267501,-85.35282897949219,-83.49264526367188,-346.818359375,549890.8915107501,-0.6888925924656518,0.03608259075973511,0.09743068048168556,0.7112013697624207,-1.440400362014771,-1.281341075897217,-0.1419064998626709,0.2493305206298828,-0.7623178958892822,XArbitraryCorrectedZVertical,0.05191287947127322,0.0005197320715515406,-0.3363931649313627,0.9402895383961684,0.03590367361903191,-0.09727660566568375,-0.9946095943450928,25.80464172363281,47.71369934082031,-47.62960815429688,-1,2,549863.1711414166,walking,2,2025-04-07T09:04:22.941-07:00,2025-04-07T09:04:42.058-07:00,14,0.653322,0.63761,1.837094,11.42,0,0,2025-04-07T09:04:45.853-07:00,549888.249502,0,-0.396347,99.95332,1744041886.419574,0.0.0.0,192.0.0.2,my_iOS_device,0,1,1744041886.40017,1,0.6,0
2025-04-07T09:04:50.925-07:00,73,1744041890.369122,49.26521113302231,-122.9524493604238,84.50201,1.297843,0.5151812,257.0594763996315,18.649823478998,6.128472496601499,14,-9999,1744041890.910994,24.7032470703125,46.97712707519531,-47.49398803710938,352.8782958984375,337.2723999023438,14.16082859039307,549890.9611247501,0.1328887939453125,0.0866241455078125,-0.93048095703125,549890.95863875,1.715078115463257,-0.5057486891746521,-1.73315703868866,549890.93791075,-86.87940979003906,-84.34986877441406,-347.137939453125,549890.95117975,-0.7741938616130617,-0.00193697045250267,0.1565146252030313,1.527935147285461,-0.5333291888237,-1.67234480381012,0.07204265892505646,0.2770617604255676,-0.1378356218338013,XArbitraryCorrectedZVertical,0.07202850075578865,-0.03040619294488675,-0.3764163125177868,0.9231457919856422,-0.001913292799144983,-0.1558763831853867,-0.9877747297286987,24.76105499267578,46.82855987548828,-47.7169189453125,-1,2,549863.1711414166,walking,2,2025-04-07T09:04:22.941-07:00,2025-04-07T09:04:42.058-07:00,14,0.653322,0.63761,1.837094,11.42,0,0,2025-04-07T09:04:45.853-07:00,549888.249502,0,-0.396347,99.95332,1744041886.419574,0.0.0.0,192.0.0.2,my_iOS_device,0,1,1744041886.40017,1,0.6,0
2025-04-07T09:04:50.985-07:00,74,1744041890.369122,49.26521113302231,-122.9524493604238,84.50201,1.297843,0.5151812,257.0594763996315,18.649823478998,6.128472496601499,14,-9999,1744041890.970653,25.68839263916016,43.82747650146484,-46.11541748046875,359.0835876464844,343.4776916503906,14.15894508361816,549891.0207937501,0.2179412841796875,-0.0777587890625,-0.3919525146484375,549890.9922027501,2.44952654838562,-0.2361427545547485,-1.814842820167542,549890.99779375,-85.81582641601562,-87.64945983886719,-345.5531005859375,549891.01084875,-0.8832399554663297,0.001600591484818987,0.287428439713982,2.648612976074219,-0.01538910903036594,-1.749154925346375,0.2119812667369843,0.2457979917526245,0.4927120208740234,XArbitraryCorrectedZVertical,0.1298180435665982,-0.06049681856179177,-0.4228946586302728,0.8947890878117994,0.001534928218461573,-0.2834871113300323,-0.9589748382568359,25.97795104980469,42.92650604248047,-45.87908935546875,-1,2,549863.1711414166,walking,2,2025-04-07T09:04:22.941-07:00,2025-04-07T09:04:42.058-07:00,14,0.653322,0.63761,1.837094,11.42,0,0,2025-04-07T09:04:45.853-07:00,549888.249502,0,-0.396347,99.95332,1744041886.419574,0.0.0.0,192.0.0.2,my_iOS_device,0,1,1744041886.40017,1,0.6,0
2025-04-07T09:04:51.045-07:00,75,1744041890.369122,49.26521113302231,-122.9524493604238,84.50201,1.297843,0.5151812,257.0594763996315,18.649823478998,6.128472496601499,14,-9999,1744041891.030274,28.47618865966797,39.10053253173828,-42.3974609375,4.282465934753418,348.6765747070312,14.15901947021484,549891.08046275,0.195587158203125,-0.1836700439453125,-0.2694244384765625,549891.05932975,2.294815301895142,0.09277015179395676,-1.270192265510559,549891.05767675,-83.01124572753906,-92.34510803222656,-341.7335205078125,549891.07051775,-0.9800248731965259,0.04103277200787633,0.4342099384267437,2.098841428756714,0.01681783050298691,-1.151971101760864,0.1765762567520142,0.2559904754161835,0.612417459487915,XArbitraryCorrectedZVertical,0.199444722456663,-0.08367948377073871,-0.4555929969833183,0.8635129797124816,0.03721459582448006,-0.4206937849521637,-0.9064390659332275,28.66378021240234,38.585205078125,-41.756591796875,-1,2,549863.1711414166,walking,2,2025-04-07T09:04:22.941-07:00,2025-04-07T09:04:42.058-07:00,14,0.653322,0.63761,1.837094,11.42,0,0,2025-04-07T09:04:45.853-07:00,549888.249502,0,-0.396347,99.95332,1744041886.419574,0.0.0.0,192.0.0.2,my_iOS_device,0,1,1744041886.40017,1,0.6,0
2025-04-07T09:04:51.105-07:00,76,1744041890.369122,49.26521113302231,-122.9524493604238,84.50201,1.297843,0.5151812,257.0594763996315,18.649823478998,6.128472496601499,14,-9999,1744041891.090054,29.95352172851562,36.28097534179688,-40.01101684570312,7.671229362487793,352.0653381347656,14.15915012359619,549891.14013175,0.1822052001953125,-0.2166900634765625,-0.2552490234375,549891.1264567501,0.9299843907356262,0.08423365652561188,-0.7264914512634277,549891.1175587501,-81.60012817382812,-94.93470764160156,-339.437255859375,549891.1301867501,-1.047105230197597,0.07259292796047248,0.5219213519445288,0.8291306495666504,0.09874897450208664,-0.6978617906570435,0.1211023181676865,0.2990379631519318,0.6183792352676392,XArbitraryCorrectedZVertical,0.24082949314104,-0.09854557716289426,-0.4746058996057555,0.8408562752455278,0.06287286430597305,-0.4985466003417969,-0.8645798563957214,30.17138671875,35.94218444824219,-39.92083740234375,-1,2,549863.1711414166,walking,2,2025-04-07T09:04:22.941-07:00,2025-04-07T09:04:42.058-07:00,14,0.653322,0.63761,1.837094,11.42,0,0,2025-04-07T09:04:45.853-07:00,549888.249502,0,-0.396347,99.95332,1744041886.419574,0.0.0.0,192.0.0.2,my_iOS_device,0,1,1744041886.40017,1,0.6,0
2025-04-07T09:04:51.170-07:00,77,1744041890.369122,49.26521113302231,-122.9524493604238,84.50201,1.297843,0.5151812,257.0594763996315,18.649823478998,6.128472496601499,14,-9999,1744041891.149856,31.41562652587891,35.91291809082031,-39.00357055664062,8.836298942565918,353.2304077148438,14.15927410125732,549891.19979975,0.2459259033203125,-0.2042236328125,-0.4818115234375,549891.1935847501,-1.062212944030762,0.7772371768951416,0.0184346679598093,549891.17743875,-80.02548217773438,-95.12702941894531,-338.601806640625,549891.1898557501,-1.072601383068406,0.1092961355832947,0.5181334343176216,-0.9523522257804871,0.7392473220825195,-0.03892814740538597,0.1227066665887833,0.2765857577323914,0.4686944484710693,XArbitraryCorrectedZVertical,0.2468612517856982,-0.08531591568775836,-0.4811430558191943,0.8368285989531632,0.09476155787706375,-0.4952594339847565,-0.8635614514350891,31.76133728027344,36.47357177734375,-38.83428955078125,-1,2,549863.1711414166,walking,2,2025-04-07T09:04:22.941-07:00,2025-04-07T09:04:42.058-07:00,19,0.6477802,0.6372421,1.841748,15.57,0,0,2025-04-07T09:04:48.398-07:00,549888.249502,0,-0.396347,99.95332,1744041886.419574,0.0.0.0,192.0.0.2,my_iOS_device,0,1,1744041886.40017,1,0.6,0
2025-04-07T09:04:51.224-07:00,78,1744041890.369122,49.26521113302231,-122.9524493604238,84.50201,1.297843,0.5151812,257.0594763996315,18.649823478998,6.128472496601499,14,-9999,1744041891.209346,32.73635864257812,38.73314666748047,-40.01840209960938,7.276545524597168,351.670654296875,14.15944290161133,549891.25946875,0.270751953125,-0.093017578125,-0.849456787109375,549891.22714875,-1.85982358455658,0.659906804561615,0.3275152742862701,549891.23731975,-78.78013610839844,-92.05101013183594,-339.6748352050781,549891.24952475,-1.043922224638683,0.1350764715934937,0.422046447071478,-2.048687219619751,0.2742051482200623,0.2224474102258682,0.1287373900413513,0.2898009717464447,0.137432873249054,XArbitraryCorrectedZVertical,0.2140567547632212,-0.04699212685823889,-0.4741560730930985,0.8527294124243751,0.1228494867682457,-0.4096281826496124,-0.903942883014679,32.96707153320312,39.57572174072266,-40.48873901367188,-1,2,549863.1711414166,walking,2,2025-04-07T09:04:22.941-07:00,2025-04-07T09:04:42.058-07:00,19,0.6477802,0.6372421,1.841748,15.57,0,0,2025-04-07T09:04:48.398-07:00,549888.249502,0,-0.396347,99.95332,1744041886.419574,0.0.0.0,192.0.0.2,my_iOS_device,0,1,1744041886.40017,1,0.6,0
2025-04-07T09:04:51.287-07:00,79,1744041890.369122,49.26521113302231,-122.9524493604238,84.50201,1.297843,0.5151812,257.0594763996315,18.649823478998,6.128472496601499,14,-9999,1744041891.269034,32.65926361083984,43.17343902587891,-42.40478515625,6.297175407409668,350.6912841796875,14.15963172912598,549891.3191377501,0.4253082275390625,-0.2348175048828125,-1.52630615234375,549891.2942757501,-2.242884874343872,0.6913750171661377,0.2364024221897125,549891.2971997501,-78.87098693847656,-87.64053344726562,-342.0212707519531,549891.30919275,-1.016864264460557,0.143506498094424,0.2990932586211992,-2.948260545730591,1.093997955322266,0.7024347186088562,0.194709911942482,0.02881526947021484,-0.3097732067108154,XArbitraryCorrectedZVertical,0.1643196309299414,-0.01041847871091272,-0.470805992284035,0.866736603965389,0.1366651803255081,-0.2946538329124451,-0.9457810521125793,32.94487762451172,44.09489440917969,-42.77490234375,-1,2,549863.1711414166,walking,2,2025-04-07T09:04:22.941-07:00,2025-04-07T09:04:42.058-07:00,19,0.6477802,0.6372421,1.841748,15.57,0,0,2025-04-07T09:04:48.398-07:00,549888.249502,0,-0.396347,99.95332,1744041886.419574,0.0.0.0,192.0.0.2,my_iOS_device,0,1,1744041886.40017,1,0.6,0
2025-04-07T09:04:51.343-07:00,80,1744041890.369122,49.26521113302231,-122.9524493604238,84.50201,1.297843,0.5151812,257.0594763996315,18.649823478998,6.128472496601499,14,-9999,1744041891.328646,33.02812194824219,49.07607269287109,-44.99713134765625,1.838618278503418,346.2327270507812,14.15989971160889,549891.3788067501,0.436248779296875,0.03350830078125,-1.706268310546875,549891.36140375,-2.395387649536133,-0.2734123766422272,1.007301211357117,549891.35707975,-78.59771728515625,-81.75839233398438,-344.55419921875,549891.36886175,-0.9266923756311936,0.1509256722881649,0.1293479126001542,-2.066481590270996,-0.3174868822097778,0.913429856300354,0.344432920217514,0.1837361305952072,-0.7763098478317261,XArbitraryCorrectedZVertical,0.0912752119932073,0.03849785128150155,-0.4403815430352393,0.8923288855301527,0.1490973234176636,-0.1289875358343124,-0.9803735017776489,33.01737213134766,50.10769653320312,-45.63607788085938,-1,2,549863.1711414166,walking,2,2025-04-07T09:04:22.941-07:00,2025-04-07T09:04:42.058-07:00,19,0.6477802,0.6372421,1.841748,15.57,0,0,2025-04-07T09:04:48.398-07:00,549888.249502,0,-0.396347,99.95332,1744041886.419574,0.0.0.0,192.0.0.2,my_iOS_device,0,1,1744041886.40017,1,0.6,0
2025-04-07T09:04:51.404-07:00,81,1744041890.369122,49.26521113302231,-122.9524493604238,84.50201,1.297843,0.5151812,257.0594763996315,18.649823478998,6.128472496601499,14,-9999,1744041891.388647,32.24667358398438,53.02001190185547,-46.67251586914062,358.985107421875,343.3792114257812,14.16004657745361,549891.4384755417,0.4324493408203125,-0.07403564453125,-1.406326293945312,549891.4285305417,-1.457008719444275,0.3138061165809631,0.7098394632339478,549891.4169595417,-79.32362365722656,-77.94216918945312,-346.2539367675781,549891.4285305417,-0.8678752736439567,0.150738316481879,0.03821092545530017,-1.461721658706665,0.3029440641403198,0.7032572031021118,0.2975580394268036,-0.01103841513395309,-0.5786352753639221,XArbitraryCorrectedZVertical,0.04893739216762553,0.06029700359454605,-0.4178714087161173,0.9051812061121548,0.1500585079193115,-0.03820162639021873,-0.9879388213157654,32.40982055664062,53.87241363525391,-46.649658203125,-1,2,549863.1711414166,walking,2,2025-04-07T09:04:22.941-07:00,2025-04-07T09:04:42.058-07:00,19,0.6477802,0.6372421,1.841748,15.57,0,0,2025-04-07T09:04:48.398-07:00,549888.249502,0,-0.396347,99.95332,1744041886.419574,0.0.0.0,192.0.0.2,my_iOS_device,0,1,1744041886.40017,1,0.6,0
2025-04-07T09:04:51.465-07:00,82,1744041890.369122,49.26521113302231,-122.9524493604238,84.50201,1.297843,0.5151812,257.0594763996315,18.649823478998,6.128472496601499,14,-9999,1744041891.448146,32.39472961425781,54.09608459472656,-47.16632080078125,356.9559326171875,341.3500366210938,14.16012287139893,549891.4981445418,0.1725006103515625,-0.33624267578125,-0.58331298828125,549891.4956585417,1.047049999237061,0.4562032222747803,0.3909499049186707,549891.4768385417,-79.05195617675781,-77.16342163085938,-346.7541809082031,549891.4881995417,-0.835975255219923,0.1504735654501584,0.03276681599138567,0.9544017910957336,0.2170137166976929,0.3603022992610931,0.08300793170928955,-0.2205501347780228,0.2627514004707336,XArbitraryCorrectedZVertical,0.04543726893715444,0.06205412180184726,-0.4035940802202342,0.9116998803266722,0.1498259007930756,-0.03276095166802406,-0.9881694912910461,32.19143676757812,53.79631042480469,-46.864501953125,-1,2,549863.1711414166,walking,2,2025-04-07T09:04:22.941-07:00,2025-04-07T09:04:42.058-07:00,19,0.6477802,0.6372421,1.841748,15.57,0,0,2025-04-07T09:04:48.398-07:00,549888.249502,0,-0.396347,99.95332,1744041886.419574,0.0.0.0,192.0.0.2,my_iOS_device,0,1,1744041886.40017,1,0.6,0
2025-04-07T09:04:51.522-07:00,83,1744041891.31911,49.26520897022392,-122.952469651907,84.50271,1.297843,0.4042106,258.3883993393612,11.82296587413859,9.013561482051978,14,-9999,1744041891.507899,33.99911499023438,51.3748779296875,-44.61886596679688,355.1427307128906,339.5368347167969,14.16022777557373,549891.5578135417,0.0622100830078125,-0.4541015625,-0.4858245849609375,549891.5292225417,0.7320531606674194,1.24592399597168,0.6872888803482056,549891.5367155417,-77.38919067382812,-79.90377807617188,-343.9068908691406,549891.5478685417,-0.8105302380548884,0.2068516355027517,0.08749060947575149,0.3199650049209595,1.52509331703186,0.7908067107200623,-0.1220898777246475,-0.3543781042098999,0.5077301859855652,XArbitraryCorrectedZVertical,0.08063958025516034,0.07763848365433539,-0.3876312667272249,0.9149926224215139,0.2045941203832626,-0.08737903088331223,-0.9749390482902527,34.66141510009766,50.94805145263672,-44.25408935546875,-1,2,549863.1711414166,walking,2,2025-04-07T09:04:22.941-07:00,2025-04-07T09:04:42.058-07:00,19,0.6477802,0.6372421,1.841748,15.57,0,0,2025-04-07T09:04:48.398-07:00,549888.249502,0,-0.396347,99.95332,1744041886.419574,0.0.0.0,192.0.0.2,my_iOS_device,0,1,1744041886.40017,1,0.6,0
2025-04-07T09:04:51.582-07:00,84,1744041891.31911,49.26520897022392,-122.952469651907,84.50271,1.297843,0.4042106,258.3883993393612,11.82296587413859,9.013561482051978,14,-9999,1744041891.567425,37.23569488525391,49.93740844726562,-42.27740478515625,351.6183776855469,336.0124816894531,14.16037750244141,549891.6174825417,0.0549774169921875,-0.3678741455078125,-0.7375946044921875,549891.5963495417,-0.5772153735160828,1.432440042495728,1.0628821849823,549891.5965935417,-74.07902526855469,-81.26376342773438,-341.5723266601562,549891.6075375417,-0.7504918661880048,0.2935016070396324,0.08600437832656048,-0.6613256335258484,1.199795126914978,1.094915151596069,-0.2244548499584198,-0.3121575713157654,0.2887359261512756,XArbitraryCorrectedZVertical,0.09310972975618916,0.1203380386257138,-0.3563781767872502,0.9218697877406182,0.2882365584373474,-0.08589839190244675,-0.9536986947059631,37.77055358886719,50.00095367431641,-42.45095825195312,-1,2,549863.1711414166,walking,2,2025-04-07T09:04:22.941-07:00,2025-04-07T09:04:42.058-07:00,19,0.6477802,0.6372421,1.841748,15.57,0,0,2025-04-07T09:04:48.398-07:00,549888.249502,0,-0.396347,99.95332,1744041886.419574,0.0.0.0,192.0.0.2,my_iOS_device,0,1,1744041886.40017,1,0.6,0
2025-04-07T09:04:51.642-07:00,85,1744041891.31911,49.26520897022392,-122.952469651907,84.50271,1.297843,0.4042106,258.3883993393612,11.82296587413859,9.013561482051978,14,-9999,1744041891.627281,37.92190551757812,49.364501953125,-42.228271484375,347.6363830566406,332.0304870605469,14.1605167388916,549891.6771515417,-0.0451812744140625,-0.2610931396484375,-0.9295196533203125,549891.6634775416,-0.0009882990270853043,-0.3609342277050018,0.8773685693740845,549891.6564735417,-73.66885375976562,-81.89814758300781,-341.9388732910156,549891.6672065418,-0.6824872793580556,0.3116442016817547,0.07785566398892027,0.09017308801412582,-0.4849696457386017,0.8346186280250549,-0.3095709681510925,-0.1700561344623566,0.05525535345077515,XArbitraryCorrectedZVertical,0.08812680604228093,0.1332665089949536,-0.3246626444166497,0.9322381912250781,0.3056952357292175,-0.07777703553438187,-0.9489474296569824,37.68413543701172,49.13672637939453,-42.07058715820312,-1,2,549863.1711414166,walking,2,2025-04-07T09:04:22.941-07:00,2025-04-07T09:04:42.058-07:00,19,0.6477802,0.6372421,1.841748,15.57,0,0,2025-04-07T09:04:48.398-07:00,549888.249502,0,-0.396347,99.95332,1744041886.419574,0.0.0.0,192.0.0.2,my_iOS_device,0,1,1744041886.40017,1,0.6,0
2025-04-07T09:04:51.701-07:00,86,1744041891.31911,49.26520897022392,-122.952469651907,84.50271,1.297843,0.4042106,258.3883993393612,11.82296587413859,9.013561482051978,14,-9999,1744041891.686935,35.36243438720703,47.30612945556641,-43.28125,345.6610107421875,330.0551147460938,14.16065311431885,549891.7368205417,-0.139862060546875,-0.2814178466796875,-1.265914916992188,549891.7306045417,-0.1851898282766342,-0.5721018314361572,0.3466053605079651,549891.7163555417,-76.34228515625,-84.067626953125,-342.9441528320312,549891.7268755417,-0.6519239229384739,0.2549378817960711,0.107920174455255,-0.04599327966570854,-0.6729090213775635,0.3894945979118347,-0.3983774483203888,-0.2089089751243591,-0.1016256809234619,XArbitraryCorrectedZVertical,0.09132782487092247,0.1031241834913704,-0.3106646892064979,0.9404849764187326,0.2507181465625763,-0.1077108085155487,-0.9620492458343506,34.83090972900391,47.14205932617188,-43.53506469726562,-1,2,549863.1711414166,walking,2,2025-04-07T09:04:22.941-07:00,2025-04-07T09:04:42.058-07:00,19,0.6477802,0.6372421,1.841748,15.57,0,0,2025-04-07T09:04:48.398-07:00,549888.249502,0,-0.396347,99.95332,1744041886.419574,0.0.0.0,192.0.0.2,my_iOS_device,0,1,1744041886.40017,1,0.6,0
2025-04-07T09:04:51.761-07:00,87,1744041891.31911,49.26520897022392,-122.952469651907,84.50271,1.297843,0.4042106,258.3883993393612,11.82296587413859,9.013561482051978,14,-9999,1744041891.746332,33.29859924316406,47.56173706054688,-44.795654296875,345.3446044921875,329.7387084960938,14.16077613830566,549891.7964895417,0.01617431640625,-0.1385040283203125,-1.926361083984375,549891.7641685416,-0.3605584502220154,-0.5866419076919556,-0.06985951215028763,549891.7762365417,-78.43498229980469,-83.58549499511719,-344.6821594238281,549891.7865445417,-0.6462291572848151,0.2197407179258705,0.09347589095059285,0.5272995829582214,-0.8300080895423889,-0.2113187909126282,-0.2002555578947067,-0.04272273182868958,-0.8527848720550537,XArbitraryCorrectedZVertical,0.07881407469296545,0.08911620807392133,-0.3104044785696949,0.9431307996015116,0.2170249670743942,-0.09333982318639755,-0.9716932773590088,33.29859924316406,47.56173706054688,-44.795654296875,-1,2,549863.1711414166,walking,2,2025-04-07T09:04:22.941-07:00,2025-04-07T09:04:42.058-07:00,19,0.6477802,0.6372421,1.841748,15.57,0,0,2025-04-07T09:04:48.398-07:00,549888.249502,0,-0.396347,99.95332,1744041886.419574,0.0.0.0,192.0.0.2,my_iOS_device,0,1,1744041886.40017,1,0.6,0
2025-04-07T09:04:51.821-07:00,88,1744041891.31911,49.26520897022392,-122.952469651907,84.50271,1.297843,0.4042106,258.3883993393612,11.82296587413859,9.013561482051978,14,-9999,1744041891.806034,31.08238983154297,46.00883483886719,-44.94223022460938,346.7533569335938,331.1474609375,14.16086959838867,549891.8561585417,0.131134033203125,0.0841217041015625,-1.842132568359375,549891.8312965417,1.022845864295959,-0.6974195837974548,-0.4267382621765137,549891.8361115417,-80.60246276855469,-85.21881103515625,-344.5901489257812,549891.8462135417,-0.6761076672774446,0.1788963984197915,0.1447823523638075,1.184491038322449,-0.8674100637435913,-0.703057587146759,-0.05535440146923065,0.1995597332715988,-0.9885200262069702,XArbitraryCorrectedZVertical,0.0975100516377498,0.06016060453187735,-0.3233653426000143,0.9393122482385577,0.1760819256305695,-0.1442770659923553,-0.9737449884414673,31.08238983154297,46.00883483886719,-44.94223022460938,-1,2,549863.1711414166,walking,2,2025-04-07T09:04:22.941-07:00,2025-04-07T09:04:42.058-07:00,19,0.6477802,0.6372421,1.841748,15.57,0,0,2025-04-07T09:04:48.398-07:00,549889.250083,0,-0.4967575,99.95448,1744041886.419574,0.0.0.0,192.0.0.2,my_iOS_device,0,1,1744041886.40017,1,0.6,0
2025-04-07T09:04:51.887-07:00,89,1744041891.31911,49.26520897022392,-122.952469651907,84.50271,1.297843,0.4042106,258.3883993393612,11.82296587413859,9.013561482051978,14,-9999,1744041891.885599,29.69988250732422,42.49788665771484,-44.46432495117188,351.7815246582031,336.1756286621094,14.15973091125488,549891.9158275417,0.1571807861328125,-0.026336669921875,-1.249710083007812,549891.8984235417,1.67197859287262,-0.8514261841773987,-0.9378606677055359,549891.8959915417,-81.81271362304688,-88.0712890625,-344.233642578125,549891.9058825417,-0.747047114434784,0.1357494765620116,0.2285019786807373,1.618406414985657,-0.7996344566345215,-0.8909023404121399,-0.001901879906654358,0.1954518705606461,-0.431911289691925,XArbitraryCorrectedZVertical,0.1304844199840527,0.02123084216472121,-0.3544857459805354,0.9256689692888601,0.1318151950836182,-0.2265186905860901,-0.9650461077690125,29.84661102294922,43.21880340576172,-44.642333984375,-1,2,549863.1711414166,walking,2,2025-04-07T09:04:22.941-07:00,2025-04-07T09:04:42.058-07:00,19,0.6477802,0.6372421,1.841748,15.57,0,0,2025-04-07T09:04:48.398-07:00,549889.250083,0,-0.4967575,99.95448,1744041886.419574,0.0.0.0,192.0.0.2,my_iOS_device,0,1,1744041886.40017,1,0.6,0
2025-04-07T09:04:51.940-07:00,90,1744041891.31911,49.26520897022392,-122.952469651907,84.50271,1.297843,0.4042106,258.3883993393612,11.82296587413859,9.013561482051978,14,-9999,1744041891.925393,29.65078735351562,41.04376220703125,-43.30130004882812,353.8682250976562,338.2623291015625,14.15943241119385,549891.9754965417,0.2468414306640625,0.148712158203125,-0.759521484375,549891.9655515417,1.143706202507019,-0.811419665813446,-0.9299135208129883,549891.9558775417,-81.76788330078125,-90.15180969238281,-342.8429565429688,549891.9655515417,-0.8054540429913479,0.1109650210401198,0.3015510365041147,1.138990998268127,-0.822282075881958,-0.9364985823631287,0.1403683573007584,0.4250076413154602,0.07786464691162109,XArbitraryCorrectedZVertical,0.1594626564609786,-0.008340325140031017,-0.3792228386553429,0.9114231985981158,0.1057406291365623,-0.2970016002655029,-0.9490041732788086,29.65078735351562,41.04376220703125,-43.30130004882812,-1,2,549863.1711414166,walking,2,2025-04-07T09:04:22.941-07:00,2025-04-07T09:04:42.058-07:00,19,0.6477802,0.6372421,1.841748,15.57,0,0,2025-04-07T09:04:48.398-07:00,549889.250083,0,-0.4967575,99.95448,1744041886.419574,0.0.0.0,192.0.0.2,my_iOS_device,0,1,1744041886.40017,1,0.6,0
2025-04-07T09:04:52.005-07:00,91,1744041891.31911,49.26520897022392,-122.952469651907,84.50271,1.297843,0.4042106,258.3883993393612,11.82296587413859,9.013561482051978,14,-9999,1744041891.987948,28.86757659912109,39.30754852294922,-42.8509521484375,359.0376281738281,343.4317321777344,14.15832710266113,549892.0351655417,0.15423583984375,0.0388031005859375,-0.3040008544921875,549892.0326785417,1.365027189254761,-1.347809791564941,-1.508629560470581,549892.0157605417,-82.71629333496094,-91.98992919921875,-342.3098754882812,549892.0252205417,-0.8947767960642157,0.06525517962071342,0.3724314931064577,1.411779761314392,-1.432102203369141,-1.511077165603638,0.1240606606006622,0.4585621356964111,0.5494579672813416,XArbitraryCorrectedZVertical,0.1806995566527953,-0.05114914436821211,-0.419461899577995,0.8881346465652594,0.06073850393295288,-0.3638813197612762,-0.9294628500938416,28.86757659912109,39.30754852294922,-42.8509521484375,-1,2,549863.1711414166,walking,2,2025-04-07T09:04:22.941-07:00,2025-04-07T09:04:42.058-07:00,19,0.6477802,0.6372421,1.841748,15.57,0,0,2025-04-07T09:04:48.398-07:00,549889.250083,0,-0.4967575,99.95448,1744041886.419574,0.0.0.0,192.0.0.2,my_iOS_device,0,1,1744041886.40017,1,0.6,0
2025-04-07T09:04:52.059-07:00,92,1744041891.31911,49.26520897022392,-122.952469651907,84.50271,1.297843,0.4042106,258.3883993393612,11.82296587413859,9.013561482051978,14,-9999,1744041892.044645,27.75151824951172,37.83905029296875,-42.29473876953125,4.661707878112793,349.0558166503906,14.15841102600098,549892.0948345417,0.1414642333984375,-0.2648773193359375,-0.23382568359375,549892.0662425417,1.02804172039032,-0.8263517022132874,-1.278881072998047,549892.0756515417,-83.94367980957031,-93.35928344726562,-341.7777404785156,549892.0848895417,-0.9864483589017974,0.04109242661271983,0.4360680835807272,0.8182928562164307,-0.478886753320694,-0.9865278601646423,0.1002756804227829,0.2265017628669739,0.68537837266922,XArbitraryCorrectedZVertical,0.1999855446318222,-0.08472697800451219,-0.4582467535070065,0.8618799154611564,0.03723649308085442,-0.4223787784576416,-0.90565425157547,27.75151824951172,37.83905029296875,-42.29473876953125,-1,2,549863.1711414166,walking,2,2025-04-07T09:04:22.941-07:00,2025-04-07T09:04:42.058-07:00,19,0.6477802,0.6372421,1.841748,15.57,0,0,2025-04-07T09:04:48.398-07:00,549889.250083,0,-0.4967575,99.95448,1744041886.419574,0.0.0.0,192.0.0.2,my_iOS_device,0,1,1744041886.40017,1,0.6,0
2025-04-07T09:04:52.119-07:00,93,1744041891.31911,49.26520897022392,-122.952469651907,84.50271,1.297843,0.4042106,258.3883993393612,11.82296587413859,9.013561482051978,14,-9999,1744041892.104496,28.15115356445312,37.37776184082031,-41.83956909179688,6.854914665222168,351.2490234375,14.15852355957031,549892.1545035416,0.138671875,-0.3271942138671875,-0.400177001953125,549892.1333705417,0.2676133215427399,-0.1608613133430481,-0.2279556691646576,549892.1355385417,-83.42308044433594,-93.75802612304688,-341.411865234375,549892.1445585417,-1.020855107137213,0.04247520552594621,0.4633714506004846,0.2330043464899063,-0.1286479532718658,-0.1427600234746933,0.1150608062744141,0.1109070479869843,0.4900420308113098,XArbitraryCorrectedZVertical,0.2104028418144742,-0.09412083877035422,-0.4711347638882756,0.851412874170307,0.03798479959368706,-0.4469665884971619,-0.8937438130378723,28.15115356445312,37.37776184082031,-41.83956909179688,-1,2,549863.1711414166,walking,2,2025-04-07T09:04:22.941-07:00,2025-04-07T09:04:42.058-07:00,19,0.6477802,0.6372421,1.841748,15.57,0,0,2025-04-07T09:04:48.398-07:00,549889.250083,0,-0.4967575,99.95448,1744041886.419574,0.0.0.0,192.0.0.2,my_iOS_device,0,1,1744041886.40017,1,0.6,0
2025-04-07T09:04:52.179-07:00,94,1744041891.31911,49.26520897022392,-122.952469651907,84.50271,1.297843,0.4042106,258.3883993393612,11.82296587413859,9.013561482051978,14,-9999,1744041892.16415,29.47864532470703,36.12195587158203,-40.59521484375,7.047297477722168,351.44140625,14.15866279602051,549892.2141725417,0.1974334716796875,-0.449798583984375,-0.594818115234375,549892.2004975417,0.4972976446151733,1.740206956863403,-0.1510481089353561,549892.1954285417,-81.83975219726562,-95.14979553222656,-339.8760986328125,549892.2042275417,-1.036317550641948,0.09698093022771637,0.4942998963089754,0.4110405743122101,1.757977247238159,-0.112225204706192,0.02117609977722168,0.03371116518974304,0.4512988328933716,XArbitraryCorrectedZVertical,0.2355557621210557,-0.08019476468212224,-0.4693655969351121,0.8472179469865659,0.08523865044116974,-0.4744154512882233,-0.8761645555496216,29.47864532470703,36.12195587158203,-40.59521484375,-1,2,549863.1711414166,walking,2,2025-04-07T09:04:22.941-07:00,2025-04-07T09:04:42.058-07:00,19,0.6477802,0.6372421,1.841748,15.57,0,0,2025-04-07T09:04:48.398-07:00,549889.250083,0,-0.4967575,99.95448,1744041886.419574,0.0.0.0,192.0.0.2,my_iOS_device,0,1,1744041886.40017,1,0.6,0
2025-04-07T09:04:52.239-07:00,95,1744041891.31911,49.26520897022392,-122.952469651907,84.50271,1.297843,0.4042106,258.3883993393612,11.82296587413859,9.013561482051978,14,-9999,1744041892.223664,32.45037841796875,36.18983459472656,-39.18521118164062,5.154078483581543,349.5481872558594,14.15882110595703,549892.2738415417,0.3303375244140625,-0.52276611328125,-1.2635498046875,549892.2676255417,-1.624830007553101,0.2014526873826981,0.5796028971672058,549892.2553175417,-79.06507873535156,-94.86531066894531,-338.7774353027344,549892.2638965417,-1.012282935174269,0.1514229078402854,0.4626038950638424,-1.548573970794678,0.2896502017974854,0.549996554851532,0.1654401421546936,-0.02430117130279541,-0.2121939659118652,XArbitraryCorrectedZVertical,0.2356219846580496,-0.04642715807626516,-0.4553774089997862,0.8572970570708521,0.1349901258945465,-0.4462798237800598,-0.884653627872467,32.45037841796875,36.18983459472656,-39.18521118164062,-1,2,549863.1711414166,walking,2,2025-04-07T09:04:22.941-07:00,2025-04-07T09:04:42.058-07:00,19,0.6477802,0.6372421,1.841748,15.57,0,0,2025-04-07T09:04:48.398-07:00,549889.250083,0,-0.4967575,99.95448,1744041886.419574,0.0.0.0,192.0.0.2,my_iOS_device,0,1,1744041886.40017,1,0.6,0
2025-04-07T09:04:52.299-07:00,96,1744041891.31911,49.26520897022392,-122.952469651907,84.50271,1.297843,0.4042106,258.3883993393612,11.82296587413859,9.013561482051978,14,-9999,1744041892.28433,31.68912506103516,39.70382690429688,-41.99319458007812,2.010890007019043,346.4049987792969,14.15900325775146,549892.3335105417,0.4487152099609375,-0.28997802734375,-1.67364501953125,549892.3011895417,-2.150483369827271,0.2526828646659851,0.8815665245056152,549892.3152065417,-79.92579650878906,-91.0750732421875,-341.5587768554688,549892.3235655417,-0.9438053460581816,0.1351604754975367,0.3532467357263633,-1.865777015686035,0.2022495418787003,0.9697639942169189,0.3110860586166382,-0.03051888942718506,-0.6608026027679443,XArbitraryCorrectedZVertical,0.1863651874959512,-0.02047814977306211,-0.4359197554375069,0.8802401190891854,0.1264291554689407,-0.3459458947181702,-0.9296973347663879,31.68912506103516,39.70382690429688,-41.99319458007812,-1,2,549863.1711414166,walking,2,2025-04-07T09:04:22.941-07:00,2025-04-07T09:04:42.058-07:00,19,0.6477802,0.6372421,1.841748,15.57,0,0,2025-04-07T09:04:48.398-07:00,549889.250083,0,-0.4967575,99.95448,1744041886.419574,0.0.0.0,192.0.0.2,my_iOS_device,0,1,1744041886.40017,1,0.6,0
