"Time (s)","Linear Acceleration x (m/s^2)","Linear Acceleration y (m/s^2)","Linear Acceleration z (m/s^2)","Absolute acceleration (m/s^2)"
-1.809708308E-3,7.768552244E-1,6.280927026E-1,-1.594031094E0,1.881206956E0
8.141291793E-3,7.433302134E-1,5.635496745E-1,-1.484799843E0,1.753498964E0
1.809229166E-2,5.772701660E-1,4.551191998E-1,-1.265898800E0,1.463855902E0
2.804429177E-2,4.804923150E-1,3.921999434E-1,-1.126515797E0,1.285974922E0
3.799529164E-2,3.310649648E-1,4.449032369E-1,-8.522726119E-1,1.016814391E0
4.794629174E-2,-2.925654352E-3,3.827762783E-2,-8.494004595E-1,8.502675325E-1
5.789829162E-2,-3.851484936E-1,-2.479657978E-1,-7.604350734E-1,8.877431497E-1
6.784929172E-2,-6.700037903E-1,-4.446895212E-2,-4.894844556E-1,8.309498173E-1
7.780029182E-2,-2.569766495E-1,2.275672013E-1,-2.680381197E-1,4.355091997E-1
8.775129169E-2,-3.239860332E-1,3.563608968E-1,-2.281361353E-1,5.329222596E-1
9.770329180E-2,-2.272385877E-1,-6.397263229E-2,-1.129378009E-1,2.616960456E-1
1.076542917E-1,-1.955267984E-1,-8.387626201E-2,-5.235713840E-2,2.191055137E-1
1.176052918E-1,-1.963296211E-1,-2.072721004E-1,3.131768703E-2,2.872069659E-1
1.275572916E-1,-1.878236765E-1,-3.537834442E-1,1.663310659E-1,4.337124419E-1
1.375082918E-1,-1.882683572E-1,-5.102099115E-1,3.104473901E-1,6.262082003E-1
1.474592916E-1,-1.439976257E-1,-5.972644275E-1,5.947261512E-1,8.550785388E-1
1.574112917E-1,-1.890857980E-1,-6.485673130E-1,9.065581620E-1,1.130593074E0
1.673622918E-1,-2.689692888E-1,-7.479062444E-1,1.207031956E0,1.445210840E0
1.773137501E-1,-3.409970453E-1,-8.497267342E-1,1.877250339E0,2.088631931E0
1.872657500E-1,-5.581474319E-1,-9.755342567E-1,2.074307354E0,2.359225856E0
1.972167501E-1,-4.784680089E-1,-9.496848857E-1,1.695236456E0,2.001164576E0
2.071677500E-1,-3.521421307E-1,-6.629865468E-1,1.487482545E0,1.666181132E0
2.171197501E-1,-3.470220163E-1,-4.815141159E-1,1.309654099E0,1.437871338E0
2.270707500E-1,-4.246800569E-1,-4.097915840E-1,1.019235177E0,1.177761707E0
2.370217501E-1,-4.902138957E-1,-2.555437893E-1,7.830784160E-1,9.585531271E-1
2.469737499E-1,-5.132057324E-1,-1.500594342E-1,5.426239514E-1,7.617996523E-1
2.569247501E-1,-5.467699197E-1,-7.053379297E-2,3.386941195E-1,6.470286451E-1
2.668757502E-1,-5.747085008E-1,1.101732373E-2,1.506675446E-1,5.942322369E-1
2.768267500E-1,-5.435165289E-1,4.799628496E-2,-2.148851752E-3,5.456358475E-1
2.867787501E-1,-4.828718394E-1,7.083609402E-2,-8.435544133E-2,4.952764945E-1
2.967297500E-1,-4.413753194E-1,6.222256064E-2,-1.818589318E-1,4.814109374E-1
3.066807501E-1,-4.304062352E-1,6.837149262E-2,-2.817475015E-1,5.189468594E-1
3.166327500E-1,-4.066367188E-1,1.385848582E-1,-3.624484330E-1,5.620747732E-1
3.265837501E-1,-4.699620643E-1,1.649318272E-1,-4.661365235E-1,6.821657482E-1
3.365347499E-1,-5.831121191E-1,1.800392783E-1,-5.206594706E-1,8.021970889E-1
3.464867501E-1,-6.216838619E-1,1.815969765E-1,-5.436583239E-1,8.455960378E-1
3.564377502E-1,-5.991679886E-1,2.507262683E-1,-4.630451006E-1,7.976695465E-1
3.663887500E-1,-4.947633219E-1,1.001195347E-1,-3.482987559E-1,6.132916837E-1
3.763407501E-1,-4.596089843E-1,1.745861650E-1,-2.524932969E-1,5.526966730E-1
3.862917500E-1,-4.679281104E-1,-1.737967908E-2,-3.532764906E-1,5.865688779E-1
3.962427501E-1,-3.409353572E-1,4.404356718E-2,-1.665403962E-1,3.819848913E-1
4.061947500E-1,-3.061634275E-1,-2.454193354E-2,2.428699493E-2,3.081042177E-1
4.161457501E-1,-2.863635859E-1,-4.110534132E-2,1.829394972E-1,3.422873238E-1
4.260967500E-1,-3.195494583E-1,4.405818522E-2,3.795831138E-1,4.981328340E-1
4.360487501E-1,-4.401626068E-1,1.675034326E-1,4.380681342E-1,6.431984224E-1
4.459997502E-1,-6.377903098E-1,1.545576972E-1,3.394022173E-1,7.388223238E-1
4.559507500E-1,-8.900175583E-1,8.711240351E-2,1.146048421E-1,9.015842139E-1
4.659017501E-1,-9.703819826E-1,-6.668749452E-3,-1.106117785E-1,9.766886044E-1
4.758537500E-1,-8.988214186E-1,-3.429742813E-2,-1.155912673E-1,9.068724261E-1
4.858047501E-1,-7.825530437E-1,1.517118573E-2,-6.533327937E-2,7.854220957E-1
4.957557500E-1,-6.593545488E-1,7.145706832E-2,-4.761943191E-2,6.649226601E-1
5.057077501E-1,-5.149148735E-1,1.503120339E-1,-1.733070865E-1,5.637077086E-1
5.156587500E-1,-4.109198043E-1,1.697306371E-1,-3.213261348E-1,5.485563413E-1
5.256097501E-1,-5.068398687E-1,1.786464715E-1,-4.091010278E-1,6.753997818E-1
5.355617502E-1,-6.259932598E-1,2.850751519E-1,-4.733093029E-1,8.349593402E-1
5.455127500E-1,-7.204632148E-1,3.173833573E-1,-5.872545791E-1,9.821748215E-1
5.554637501E-1,-6.343468845E-1,4.122228563E-2,-4.374214321E-1,7.716428941E-1
5.654157500E-1,-2.934702918E-1,-4.798388886E-1,8.531321526E-2,5.689011478E-1
5.753667501E-1,7.870849282E-2,-9.697361577E-1,5.449461731E-1,1.115145539E0
5.853177500E-1,3.295987755E-1,-1.169579955E0,6.531582543E-1,1.379553671E0
5.952687501E-1,4.756005344E-1,-9.562910700E-1,7.895410511E-1,1.328180541E0
6.052207500E-1,3.752459416E-1,-5.558480144E-1,5.419295946E-1,8.622437110E-1
6.151717501E-1,3.175102419E-1,-7.211774522E-1,-1.783946027E-1,8.079197395E-1
6.251227499E-1,4.036420673E-2,-6.693793076E-1,-6.548621330E-1,9.373058945E-1
6.350747501E-1,1.476831257E-1,-4.823490983E-1,-8.818273634E-1,1.015918529E0
6.450257502E-1,4.569435310E-1,-2.643491113E-1,-8.497245415E-1,1.000354757E0
6.549767500E-1,6.904441944E-1,-3.785563427E-1,-1.127006378E0,1.374831432E0
6.649287501E-1,7.547869554E-1,-5.492085010E-1,-1.281078172E0,1.585085047E0
6.748797500E-1,8.043447393E-1,-5.155589443E-1,-1.080865415E0,1.442581550E0
6.848307501E-1,8.168650898E-1,-4.754645866E-1,-8.158191691E-1,1.248557594E0
6.947827500E-1,6.901339996E-1,-5.263979280E-1,-5.027682332E-1,1.003073084E0
7.047337501E-1,6.392255089E-1,-5.172312480E-1,-1.479819915E-1,8.354855384E-1
7.146847500E-1,5.734808779E-1,-3.519708073E-1,1.726799726E-1,6.946813222E-1
7.246357501E-1,8.292141169E-1,-6.093360043E-1,2.229782699E-1,1.052903475E0
7.345877502E-1,7.443169311E-1,-1.064868017E0,4.549250722E-2,1.300008137E0
7.445387500E-1,8.609346771E-1,-1.075928611E0,2.764528477E-1,1.405438391E0
7.544897501E-1,1.262126761E0,-1.207647083E0,4.357824576E-1,1.800356017E0
7.644417500E-1,1.161968342E0,-1.356410775E0,3.908419641E-1,1.828326573E0
7.743927501E-1,9.050992817E-1,-1.408248096E0,3.927095648E-1,1.719473236E0
7.843437500E-1,6.091298899E-1,-1.317750739E0,6.869672207E-1,1.606060458E0
7.942957501E-1,3.633588445E-1,-1.039489932E0,1.090520922E0,1.549775742E0
8.042467500E-1,8.745709687E-2,-1.016913832E0,1.163003153E0,1.547365122E0
8.141977501E-1,-2.170518610E-1,-1.099513940E0,1.011909785E0,1.509968154E0
8.241497502E-1,-3.566839555E-1,-1.088008373E0,8.687101583E-1,1.437234499E0
8.341007500E-1,-2.697814670E-1,-1.059726561E0,7.987341897E-1,1.354170864E0
8.440517501E-1,-7.690901220E-2,-1.130139316E0,6.314826259E-1,1.296880942E0
8.540037500E-1,-1.356817156E-2,-1.145885868E0,5.786990793E-1,1.283795600E0
8.639547501E-1,-1.845439732E-2,-1.061263209E0,4.591131404E-1,1.156462295E0
8.739057500E-1,-1.111479682E-1,-6.464260626E-1,-3.421100628E-1,7.397701132E-1
8.838567501E-1,-2.922625494E-1,-1.407407266E-1,-1.096948181E0,1.143905880E0
8.938087500E-1,-5.564751282E-1,1.661650050E-1,-1.005315588E0,1.161005947E0
9.037597501E-1,-8.875962263E-1,9.720996022E-3,-8.895237610E-1,1.256651933E0
9.137107502E-1,-1.306215937E0,-3.490355051E-1,-7.942495215E-1,1.568074666E0
9.236627501E-1,-1.604670395E0,-5.916867685E-1,-2.623709983E-1,1.730288661E0
9.336137502E-1,-1.631345100E0,-6.721684295E-1,2.925019929E-1,1.788478306E0
9.435647500E-1,-1.363295286E0,-5.449581599E-1,8.060644054E-1,1.674900970E0
9.535167501E-1,-1.131715433E0,-5.248571867E-1,1.048550193E0,1.629635663E0
9.634677500E-1,-9.145632926E-1,-4.657424212E-1,1.041002314E0,1.461857667E0
9.734187501E-1,-7.171367338E-1,-3.633319473E-1,1.005429024E0,1.287316092E0
9.833707500E-1,-6.617919606E-1,-2.808669108E-1,7.531500274E-1,1.041196324E0
9.933217501E-1,-6.571255901E-1,-2.167738259E-1,4.040022558E-1,8.012632249E-1
1.003272750E0,-6.996594062E-1,-1.941070944E-1,3.742791045E-1,8.168755700E-1
1.013223750E0,-6.790257517E-1,9.949212849E-2,8.645108342E-2,6.916996782E-1
1.023175750E0,-7.025119704E-1,2.551666439E-1,-4.505308896E-2,7.487742420E-1
1.033126750E0,-7.491335750E-1,3.588395315E-1,-1.378293979E-1,8.419999201E-1
1.043077750E0,-7.982127643E-1,4.482802963E-1,-8.260449260E-2,9.191965749E-1
1.053029750E0,-8.342950550E-1,4.580147409E-1,-7.899208277E-2,9.550211991E-1
1.062980750E0,-8.133281091E-1,5.722079390E-1,1.661825466E-1,1.008236667E0
1.072931750E0,-6.970185113E-1,6.148125064E-1,1.702285275E-1,9.448846357E-1
1.082883750E0,-6.091445079E-1,5.075973755E-1,1.076820311E-1,8.001921938E-1
1.092834750E0,-4.942247933E-1,5.207126802E-1,1.984276021E-1,7.448310915E-1
1.102785750E0,-5.314955306E-1,5.239298183E-1,2.229680738E-1,7.789125211E-1
1.112736750E0,-6.563844556E-1,3.570765960E-1,1.882481843E-1,7.705722729E-1
1.122688750E0,-8.441961452E-1,3.327322984E-1,1.640614691E-1,9.221139190E-1
1.132639750E0,-9.249217813E-1,4.158908147E-1,1.936109582E-1,1.032439187E0
1.142590750E0,-1.058857664E0,6.366869402E-1,3.185206407E-1,1.275933075E0
1.152542750E0,-1.124606242E0,6.419120121E-1,3.548137236E-1,1.342640313E0
1.162493750E0,-1.649558885E0,4.237810475E-1,3.374045160E-1,1.736224841E0
1.172444750E0,-1.873498620E0,5.752151620E-1,5.737837636E-1,2.042081626E0
1.182396500E0,-2.185408545E0,5.357698452E-1,5.371743464E-1,2.313356028E0
1.192347500E0,-2.484099523E0,5.283748716E-1,6.246443072E-1,2.615360578E0
1.202298500E0,-2.551355367E0,5.264178085E-1,6.731759048E-1,2.690668266E0
1.212250500E0,-2.802237756E0,5.302225918E-1,7.854567710E-1,2.958143806E0
1.222201500E0,-3.044893697E0,4.643022519E-1,8.100758877E-1,3.184835498E0
1.232152500E0,-3.209341082E0,3.952706087E-1,8.096104494E-1,3.333403383E0
1.242103500E0,-3.340319005E0,4.153581333E-1,8.217793822E-1,3.464906173E0
1.252055500E0,-3.410172767E0,5.567917550E-1,8.140704131E-1,3.549930421E0
1.262006500E0,-3.528747869E0,6.436854726E-1,8.376884866E-1,3.683492162E0
1.271957500E0,-3.724171171E0,6.415886611E-1,7.697356546E-1,3.856628048E0
1.281909500E0,-3.893374974E0,6.963004732E-1,7.616147491E-1,4.027810828E0
1.291860500E0,-4.072970449E0,7.401288629E-1,7.652075708E-1,4.209800665E0
1.301811500E0,-4.188432493E0,7.744678062E-1,7.814841726E-1,4.330529372E0
1.311763500E0,-4.274864280E0,8.270418763E-1,8.288264465E-1,4.432314989E0
1.321714500E0,-4.407516553E0,7.680884939E-1,8.435126057E-1,4.552765711E0
1.331665500E0,-4.581806849E0,6.591396636E-1,7.673491135E-1,4.692147031E0
1.341616500E0,-4.843093189E0,4.890125853E-1,6.897781965E-1,4.916348127E0
1.351568500E0,-5.048671936E0,2.018762898E-1,4.531747082E-1,5.072988238E0
1.361519500E0,-5.077689328E0,5.845987737E-2,3.739317799E-1,5.091774882E0
1.371470500E0,-4.991400797E0,-1.603715837E-2,3.371902156E-1,5.002802850E0
1.381422500E0,-4.940811857E0,-9.389692783E-2,2.323698118E-1,4.947164255E0
1.391373500E0,-4.978690120E0,-1.962068295E-1,1.996835840E-1,4.986554518E0
1.401324500E0,-4.995408479E0,-2.523377609E-1,3.636453581E-1,5.014979378E0
1.411276500E0,-5.004086916E0,-2.122007185E-1,6.979394478E-1,5.056978790E0
1.421227500E0,-5.015449811E0,-1.115414858E-2,1.179036365E0,5.152182835E0
1.431178500E0,-5.050428439E0,3.070823175E-1,1.811299594E0,5.374191399E0
1.441129500E0,-5.021240308E0,7.400698060E-1,2.344458073E0,5.590799693E0
1.451081500E0,-4.903781733E0,1.140439187E0,2.692038498E0,5.709181035E0
1.461032500E0,-4.844783911E0,1.353201238E0,2.780027692E0,5.747315783E0
1.470983500E0,-4.759911869E0,1.412220694E0,2.681174372E0,5.642678823E0
1.480935500E0,-4.543353220E0,1.310303725E0,2.458519416E0,5.329472024E0
1.490886500E0,-4.215280860E0,1.161793218E0,2.165176301E0,4.879174585E0
1.500837500E0,-3.692482478E0,9.814615792E-1,1.759132490E0,4.206214545E0
1.510789500E0,-3.118193223E0,7.897068197E-1,1.400986438E0,3.508493813E0
1.520740500E0,-2.623630461E0,5.272276479E-1,1.001163188E0,2.857224792E0
1.530691500E0,-2.149340580E0,2.243459702E-1,5.929333949E-1,2.240885105E0
1.540642500E0,-1.734862452E0,-8.586460769E-2,2.434532091E-1,1.753964060E0
1.550594500E0,-1.382369488E0,-3.900046062E-1,-1.246392488E-2,1.436385862E0
1.560545500E0,-1.100711157E0,-6.253445113E-1,-1.113333249E-1,1.270832766E0
1.570496500E0,-8.610533756E-1,-8.231546474E-1,-1.588419521E-1,1.201760065E0
1.580448500E0,-9.357766986E-1,-1.301481446E0,-3.506578150E-1,1.640881741E0
1.590399500E0,-9.609246960E-1,-1.663135242E0,9.944505841E-2,1.923352393E0
1.600350500E0,-1.010384539E0,-2.093800217E0,3.932851866E-1,2.357869696E0
1.610302500E0,-9.199646580E-1,-2.484745640E0,7.273307696E-1,2.747600029E0
1.620253500E0,-7.834678406E-1,-2.558147492E0,7.548261318E-1,2.779874627E0
1.630204500E0,-3.180075476E-1,-2.468095109E0,1.607338772E0,2.962458471E0
1.640155500E0,-1.142689195E-1,-2.364367842E0,1.506264094E0,2.805730600E0
1.650107500E0,-1.754047751E-2,-2.146806396E0,1.265859624E0,2.492285288E0
1.660058500E0,-5.812132359E-2,-1.835809368E0,1.049776646E0,2.115562604E0
1.670009500E0,2.864112407E-2,-1.896459612E0,1.080226606E0,2.182720526E0
1.679961500E0,-4.261906850E-1,-1.370172781E0,7.942840201E-1,1.640091173E0
1.689912500E0,-6.051017430E-1,-1.271895704E0,7.348093584E-1,1.588650873E0
1.699863500E0,-6.165491295E-1,-1.139330555E0,8.416552377E-1,1.544859373E0
1.709815500E0,-5.324755239E-1,-9.719212621E-1,8.992924118E-1,1.427195840E0
1.719766500E0,-4.270075411E-1,-1.048013418E0,9.202698827E-1,1.458617229E0
1.729717500E0,-1.005598301E-1,-8.796931297E-1,1.046491973E0,1.370809152E0
1.739668500E0,2.473418999E-1,-9.245968223E-1,1.214559077E0,1.546354116E0
1.749620500E0,6.469581592E-1,-9.936606252E-1,1.210264882E0,1.694301444E0
1.759571500E0,1.019702370E0,-1.026084021E0,1.119131348E0,1.828960446E0
1.769522500E0,1.347753387E0,-9.570108622E-1,1.033077291E0,1.949245411E0
1.779474500E0,1.573985084E0,-8.943667173E-1,1.012886855E0,2.074430199E0
1.789425500E0,1.682719322E0,-9.703811055E-1,9.950259501E-1,2.182489507E0
1.799376500E0,1.895023536E0,-7.787965000E-1,1.154736798E0,2.351819565E0
1.809328500E0,2.083391588E0,-7.077914214E-1,1.179152140E0,2.496375167E0
1.819279500E0,2.289824029E0,-6.609569782E-1,1.149265266E0,2.645934402E0
1.829230500E0,2.481580542E0,-6.039893103E-1,1.154492677E0,2.802837565E0
1.839181500E0,2.574176465E0,-6.705651230E-1,1.122939055E0,2.887392280E0
1.849133500E0,2.845803021E0,-5.916148478E-1,1.049095738E0,3.090178770E0
1.859084500E0,3.022601772E0,-6.628503066E-1,8.827649644E-1,3.217882220E0
1.869035500E0,3.100779630E0,-7.190344477E-1,8.465958425E-1,3.293716650E0
1.878987500E0,3.295073835E0,-8.217033684E-1,7.094055453E-1,3.469288722E0
1.888938500E0,3.417591714E0,-9.769340801E-1,5.025363180E-1,3.589829533E0
1.898889500E0,3.558521306E0,-1.106782029E0,2.293947485E-1,3.733719633E0
1.908840500E0,3.534319680E0,-1.206686971E0,5.206039220E-2,3.734999241E0
1.918792500E0,3.476185493E0,-1.354115158E0,-8.027963966E-2,3.731479366E0
1.928743500E0,3.463139770E0,-1.489692208E0,-1.933522189E-1,3.774904638E0
1.938694500E0,3.540825292E0,-1.557685971E0,-2.686020836E-1,3.877625100E0
1.948646500E0,3.670433505E0,-1.596841850E0,-3.568731129E-1,4.018624694E0
1.958597500E0,3.715565239E0,-1.722964538E0,-5.356070003E-1,4.130485045E0
1.968548500E0,3.656503099E0,-1.900390695E0,-7.252816129E-1,4.184200416E0
1.978500500E0,3.638026482E0,-1.881244572E0,-7.244439992E-1,4.159223116E0
1.988451500E0,3.066441856E0,-2.422740596E0,-1.236609804E0,4.099017133E0
1.998402500E0,2.612753470E0,-2.829141380E0,-1.662136246E0,4.194427081E0
2.008353500E0,2.254172385E0,-3.255565369E0,-1.958815782E0,4.417800163E0
2.018305500E0,1.978397230E0,-3.535769790E0,-2.184944860E0,4.603227960E0
2.028256500E0,1.926435948E0,-3.500283038E0,-2.152756231E0,4.538446452E0
2.038207500E0,1.792874433E0,-3.668034977E0,-2.195412253E0,4.635592119E0
2.048159500E0,1.876127089E0,-3.523152668E0,-2.009228721E0,4.468719909E0
2.058110500E0,2.017045571E0,-3.267908256E0,-1.752450584E0,4.221229709E0
2.068061500E0,2.141782469E0,-3.045245699E0,-1.513316714E0,4.018815869E0
2.078012500E0,2.389281074E0,-2.671416830E0,-1.041272456E0,3.732208496E0
2.087964500E0,2.592970585E0,-1.976707969E0,-3.819012424E-1,3.282791405E0
2.097915500E0,2.505488638E0,-1.449114286E0,9.580925971E-2,2.895960107E0
2.107866500E0,2.117422968E0,-1.151104508E0,2.177675602E-1,2.419905850E0
2.117818500E0,1.439826568E0,-7.465064210E-1,-1.650873631E-1,1.630222752E0
2.127769500E0,4.919806319E-1,-4.881197155E-1,-3.451971003E-1,7.742524375E-1
2.137720500E0,-1.533981943E-1,-1.487373787E-1,2.046926013E-1,2.958933505E-1
2.147672500E0,-5.022267079E-1,2.751495034E-1,7.386819693E-1,9.346603486E-1
2.157623500E0,-1.058204530E0,-8.505710721E-2,1.727673885E-1,1.075583614E0
2.167574500E0,-1.507131529E0,-2.540094799E-1,-3.071451750E-1,1.558943366E0
2.177525500E0,-1.578785941E0,3.354839981E-1,-1.354177138E-1,1.619707540E0
2.187477000E0,-1.835417312E0,3.970703816E-1,-1.939492196E-2,1.877977039E0
2.197428000E0,-2.167614590E0,3.643885392E-1,-2.681416154E-1,2.214324264E0
2.207379000E0,-2.259445989E0,2.137321043E-1,-6.561473510E-1,2.362478981E0
2.217331000E0,-1.976889818E0,6.796370780E-1,-3.639169613E-1,2.121894310E0
2.227282000E0,-1.623000831E0,8.200579619E-1,-1.297321737E-1,1.823035160E0
2.237233000E0,-1.469427805E0,4.335558379E-1,-5.764115024E-1,1.636899190E0
2.247184000E0,-1.218636048E0,1.873272479E-1,-8.185087422E-1,1.479906036E0
2.257136000E0,-7.284607440E-1,3.723816830E-1,-5.748330465E-1,9.998780949E-1
2.267087000E0,-5.612259910E-1,-4.629299104E-2,-5.770582044E-1,8.062963631E-1
2.277038000E0,-3.735543421E-1,-2.223035377E-1,-3.492410347E-1,5.576118809E-1
2.286990000E0,3.033769369E-2,7.268556833E-2,2.472685173E-1,2.595097053E-1
2.296941000E0,2.637670210E-1,2.423343444E-1,5.877548084E-1,6.882984023E-1
2.306892000E0,3.311015099E-1,3.720501459E-1,8.137777600E-1,9.540879223E-1
2.316843000E0,3.944008353E-1,5.373866004E-1,1.081870551E0,1.270740047E0
2.326795000E0,3.452111337E-1,6.053417712E-1,1.220902137E0,1.405777868E0
2.336746000E0,1.563180014E-1,5.919411224E-1,1.289074824E0,1.427075160E0
2.346697000E0,-1.234613273E-1,4.566821605E-1,1.250410110E0,1.336909398E0
2.356649000E0,-4.124853963E-1,2.524061733E-1,1.229056664E0,1.320769988E0
2.366600000E0,-5.323816761E-1,1.643359959E-1,1.420626651E0,1.525980554E0
2.376551000E0,-5.272837812E-1,2.401498246E-1,1.610593624E0,1.711640134E0
2.386503000E0,-4.078541091E-1,7.231877249E-1,1.782797341E0,1.966649898E0
2.396454000E0,-5.059744808E-1,6.936744887E-1,1.564136034E0,1.784297062E0
2.406405000E0,-6.786953840E-1,5.261611158E-1,1.449068677E0,1.684420665E0
2.416356000E0,-7.156538799E-1,5.556573951E-1,1.486839352E0,1.741151020E0
2.426308000E0,-7.158927387E-1,7.353908640E-1,1.340567159E0,1.688319414E0
2.436259000E0,-7.153124025E-1,7.619179273E-1,1.282005832E0,1.654004146E0
2.446210000E0,-5.008172366E-1,8.480351347E-1,1.129575060E0,1.498639820E0
2.456162000E0,-3.415510690E-1,1.094485334E0,1.091802924E0,1.583221053E0
2.466113000E0,-2.898263070E-1,1.342716596E0,1.075700277E0,1.744711503E0
2.476064000E0,-3.090382111E-1,1.376773118E0,1.019321423E0,1.740696700E0
2.486015000E0,-5.620083484E-1,1.495795532E0,7.671965012E-1,1.772525918E0
2.495967000E0,-8.832812735E-1,1.447163070E0,5.294381878E-1,1.776167659E0
2.505918000E0,-9.064239684E-1,1.487401269E0,4.576568913E-1,1.800948854E0
2.515869000E0,-1.455378700E0,1.480697436E0,-1.079089031E-1,2.078998891E0
2.525821000E0,-1.703220829E0,1.270770700E0,-5.500221410E-1,2.195072600E0
2.535772000E0,-1.806537622E0,1.364797436E0,-8.008326092E-1,2.401579290E0
2.545723000E0,-1.818400745E0,1.404945588E0,-9.001177463E-1,2.467927335E0
2.555674000E0,-1.869082656E0,1.591712673E0,-9.689488301E-1,2.639295558E0
2.565626000E0,-2.153055608E0,1.340649605E0,-1.026141323E0,2.736047483E0
2.575577000E0,-2.647476283E0,8.586870074E-1,-1.412454290E0,3.121137800E0
2.585528000E0,-3.168988278E0,3.992484695E-1,-1.421340011E0,3.496011080E0
2.595480000E0,-3.791644239E0,-1.077174067E-1,-1.415400702E0,4.048645233E0
2.605431000E0,-4.487864021E0,-7.144666028E-1,-1.523751362E0,4.793037055E0
2.615382000E0,-5.034903497E0,-1.287473271E0,-1.329661517E0,5.364311736E0
2.625333000E0,-5.243397081E0,-1.554983972E0,-8.534174967E-1,5.535296697E0
2.635285000E0,-5.038484332E0,-1.310020720E0,-1.141990453E-1,5.207256482E0
2.645236000E0,-4.784883280E0,-1.015397065E0,6.948410082E-1,4.940540783E0
2.655187000E0,-4.395407555E0,-4.440708858E-1,1.511864265E0,4.669319017E0
2.665139000E0,-3.768311510E0,6.116023850E-1,2.258437637E0,4.435625060E0
2.675090000E0,-3.272778110E0,1.683250249E0,2.624607238E0,4.520284406E0
2.685041000E0,-3.178815401E0,2.384953550E0,2.825756719E0,4.876245668E0
2.694992000E0,-3.399039961E0,2.495202801E0,2.621143055E0,4.964866623E0
2.704944000E0,-3.853884634E0,2.121543501E0,2.272806877E0,4.951668880E0
2.714895000E0,-4.151173742E0,1.667501358E0,2.078780766E0,4.932963987E0
2.724846000E0,-4.111080554E0,1.290620243E0,1.852601548E0,4.690289589E0
2.734798000E0,-3.909393714E0,9.699612755E-1,1.458569233E0,4.283877717E0
2.744749000E0,-3.783811894E0,2.824865896E-1,7.137333620E-1,3.860886742E0
2.754700000E0,-3.288988346E0,4.996972024E-2,4.304230459E-1,3.317409427E0
2.764651000E0,-2.791216339E0,-1.746154010E-1,6.287559231E-1,2.866480978E0
2.774603000E0,-2.450059080E0,-5.996231943E-1,5.869389756E-1,2.589755747E0
2.784554000E0,-2.179281247E0,-8.789341611E-1,1.088744392E0,2.589817825E0
2.794505000E0,-1.968643489E0,-1.199709488E0,1.443903393E0,2.720242095E0
2.804457000E0,-1.856094528E0,-1.567513386E0,1.761455297E0,3.000818201E0
2.814408000E0,-1.715992318E0,-1.682172607E0,2.664582897E0,3.588082542E0
2.824359000E0,-1.056531057E0,-1.831797009E0,3.071612256E0,3.729147357E0
2.834310000E0,-1.473053956E-1,-2.334030733E0,4.269076706E0,4.867690856E0
2.844262000E0,4.260281324E-3,-1.983243402E0,5.277110372E0,5.637478729E0
2.854213000E0,1.186160320E-1,-2.110014546E0,5.402417958E0,5.801064638E0
2.864164000E0,3.234738171E-1,-2.118706432E0,4.816792705E0,5.272100551E0
2.874116000E0,2.827719337E-1,-2.227279871E0,4.634182406E0,5.149406001E0
2.884067000E0,-4.872718692E-2,-2.429281876E0,4.442266556E0,5.063350366E0
2.894018000E0,-2.220772505E-3,-2.705303199E0,4.251740004E0,5.039440782E0
2.903969000E0,4.652074009E-1,-2.483072752E0,4.058668744E0,4.780675704E0
2.913921000E0,9.323467219E-1,-2.428606523E0,3.479306444E0,4.344303556E0
2.923872000E0,1.369044269E0,-2.422838829E0,2.694560987E0,3.873640292E0
2.933823000E0,1.813363076E0,-2.178162090E0,1.941802431E0,3.435589093E0
2.943775000E0,2.444358922E0,-1.759720720E0,1.575454490E0,3.399053456E0
2.953726000E0,2.996789823E0,-1.257318596E0,1.192664470E0,3.461798353E0
2.963677000E0,3.406746299E0,-1.183736649E0,1.228777751E0,3.810124350E0
2.973628000E0,3.525610837E0,-8.237025315E-1,2.752541685E-1,3.631002960E0
2.983580000E0,3.991829807E0,-5.187386602E-1,-1.020146173E0,4.152648940E0
2.993531000E0,4.407607185E0,-6.084326094E-1,-1.072376427E0,4.576809210E0
3.003482000E0,3.895976400E0,-6.256661081E-1,-5.092267022E-1,3.978618105E0
3.013434000E0,3.524543720E0,-9.693461484E-1,-7.518145233E-2,3.656185532E0
3.023385000E0,3.105442784E0,-1.029352614E0,5.948489428E-2,3.272136939E0
3.033336000E0,2.588174114E0,-9.577563822E-1,4.737180233E-2,2.760106270E0
3.043287000E0,1.988887135E0,-9.731170177E-1,1.302191006E-1,2.218013927E0
3.053239000E0,1.358159092E0,-1.053201653E0,-1.466800359E-1,1.724918802E0
3.063190000E0,1.218018875E0,-1.331248451E0,-6.700491062E-1,1.924774850E0
3.073141000E0,1.570121829E0,-1.706208172E0,-4.496301261E-1,2.361905191E0
3.083093000E0,2.032532507E0,-1.815205534E0,6.271178256E-1,2.796325498E0
3.093044000E0,2.124688718E0,-2.012365460E0,1.074068173E0,3.117296799E0
3.102995000E0,2.021436245E0,-2.616875757E0,1.865881306E0,3.796808695E0
3.112946000E0,2.206836251E0,-3.038323181E0,9.961138245E-1,3.885071008E0
3.122898000E0,1.684310349E0,-2.729926409E0,-7.668623328E-1,3.298102089E0
3.132849000E0,2.014258788E0,-2.628841499E0,-1.756127021E0,3.748603501E0
3.142800000E0,2.723547097E0,-2.293877903E0,-2.448548452E0,4.321455096E0
3.152752000E0,3.248556311E0,-1.973516559E0,-3.442629492E0,5.128311957E0
3.162703000E0,3.062372194E0,-1.960305360E0,-4.226920035E0,5.575641088E0
3.172654000E0,3.200015650E0,-1.744691622E0,-4.279085093E0,5.620909023E0
3.182605042E0,3.331607239E0,-1.723214799E0,-4.341426644E0,5.737339222E0
3.192557042E0,3.598688169E0,-1.724704084E0,-4.263443791E0,5.839701506E0
3.202508042E0,3.925283230E0,-1.436200710E0,-3.758522394E0,5.621121907E0
3.212459042E0,3.684080907E0,-1.389584368E0,-3.454875315E0,5.238278370E0
3.222411042E0,2.744253842E0,-2.258099960E0,-3.266171633E0,4.826781714E0
3.232362042E0,1.701932688E0,-2.817147571E0,-2.757129703E0,4.293560237E0
3.242313042E0,7.208043998E-1,-3.535625948E0,-2.519398579E0,4.400861169E0
3.252264042E0,-8.688787043E-2,-4.135932097E0,-2.049016392E0,4.616486975E0
3.262216042E0,-1.263372803E-1,-3.595593823E0,-2.612828314E-1,3.607287730E0
3.272167042E0,1.489396924E-1,-3.075393358E0,5.072246155E-1,3.120497421E0
3.282118042E0,4.691747367E-1,-2.458477024E0,1.162296956E0,2.759559462E0
3.292069042E0,9.174597108E-1,-1.893483379E0,2.071884268E0,2.952916533E0
3.302021042E0,1.381963107E0,-1.384862741E0,2.786157036E0,3.404458528E0
3.311972042E0,1.610596256E0,-8.093552184E-1,3.085339472E0,3.573289217E0
3.321923042E0,1.516228627E0,-7.303283447E-1,3.133099530E0,3.556492852E0
3.331875042E0,1.062131521E0,-7.283648497E-1,2.728673058E0,3.017332494E0
3.341826042E0,8.485321480E-1,-7.650134432E-1,2.482928910E0,2.733164530E0
3.351777042E0,7.664436722E-1,-6.242411417E-1,2.255551451E0,2.462645986E0
3.361728042E0,7.341103238E-1,-6.262058061E-1,1.859191506E0,2.094670555E0
3.371680042E0,6.617849439E-1,-7.718312967E-1,1.362591866E0,1.700099837E0
3.381631042E0,5.648825473E-1,-9.061307305E-1,6.450168836E-1,1.247482254E0
3.391582042E0,5.164494753E-1,-8.445648122E-1,6.113679117E-1,1.163520737E0
3.401534042E0,-1.000318265E-1,-1.664217562E0,-6.433141744E-1,1.787030942E0
3.411485042E0,-5.581781298E-1,-1.536528990E0,-1.672428807E0,2.338696705E0
3.421436042E0,-6.937715524E-1,-1.724314075E0,-1.481296484E0,2.376724062E0
3.431387042E0,-6.118479681E-1,-1.769357516E0,-1.368958315E0,2.319273771E0
3.441339042E0,-5.889081717E-1,-1.682091916E0,-1.250081204E0,2.176912737E0
3.451290042E0,-4.151645905E-1,-1.536388072E0,-7.359904960E-1,1.753434332E0
3.461241042E0,-3.680167365E-1,-1.260863178E0,-3.317157599E-1,1.354713112E0
3.471193042E0,-3.435970098E-1,-1.021664110E0,-1.988374919E-2,1.078077837E0
3.481144042E0,-2.594497293E-1,-7.257645929E-1,3.434060982E-1,8.437867945E-1
3.491095042E0,-1.647382843E-1,-4.449584931E-1,8.569951156E-1,9.795751074E-1
3.501046042E0,-1.388444746E-1,-2.513022190E-1,1.255585481E0,1.287992816E0
3.510998042E0,-7.124890745E-2,-5.838971078E-2,1.414171033E0,1.417168118E0
3.520949042E0,-1.949520171E-2,1.192978173E-1,1.481219593E0,1.486143840E0
3.530900042E0,-1.642248988E-2,2.990219307E-1,1.529458537E0,1.558501598E0
3.540852042E0,-1.471393347E-2,4.605717283E-1,1.412090886E0,1.485376547E0
3.550803042E0,-2.870047331E-2,6.397701770E-1,1.215901013E0,1.374243381E0
3.560754042E0,-4.640350342E-2,7.788859624E-1,1.029899621E0,1.292095143E0
3.570705042E0,-9.012138069E-2,8.214057451E-1,1.004730866E0,1.300889455E0
3.580657042E0,-4.960076094E-2,1.092702518E0,8.416473439E-1,1.380155528E0
3.590608042E0,-2.847652495E-2,1.302213517E0,7.497665361E-1,1.502904127E0
3.600559042E0,-5.273311436E-2,1.445576720E0,7.596354666E-1,1.633866236E0
3.610510042E0,-1.266612160E-1,1.561563259E0,7.413956621E-1,1.733260051E0
3.620462042E0,-1.753077114E-1,1.727441751E0,7.147958010E-1,1.877690292E0
3.630413042E0,-2.472787499E-1,1.881139323E0,6.982692307E-1,2.021734861E0
3.640364042E0,-4.156534177E-1,1.937731599E0,6.499612892E-1,2.085670442E0
3.650316042E0,-5.864026397E-1,1.904093152E0,6.115819198E-1,2.084099622E0
3.660267042E0,-8.003680480E-1,1.862324152E0,5.995489347E-1,2.113835184E0
3.670218042E0,-1.042541302E0,1.771574780E0,5.938312349E-1,2.139627328E0
3.680169042E0,-1.341809985E0,1.634373373E0,5.482726541E-1,2.184544177E0
3.690121042E0,-1.603372605E0,1.519143464E0,3.943069875E-1,2.243675239E0
3.700072042E0,-1.656594255E0,1.550978045E0,3.927144983E-1,2.303054949E0
3.710023042E0,-1.821335170E0,1.511693527E0,2.935699868E-1,2.385091708E0
3.719975042E0,-1.893426661E0,1.501054518E0,2.056524217E-1,2.424978785E0
3.729926042E0,-1.916261208E0,1.503708569E0,1.439561105E-1,2.440065540E0
3.739877042E0,-1.944669905E0,1.486151719E0,1.764385629E-1,2.453878265E0
3.749828042E0,-1.987214539E0,1.389123023E0,8.712205142E-2,2.426164596E0
3.759780042E0,-2.139790030E0,1.217609569E0,-1.046069804E-1,2.464186895E0
3.769731042E0,-2.403090735E0,1.045799662E0,-2.843571138E-1,2.636171653E0
3.779682042E0,-2.704643926E0,8.373154342E-1,-4.492614591E-1,2.866710966E0
3.789634042E0,-3.009139143E0,6.760498112E-1,-6.250313929E-1,3.146843811E0
3.799585042E0,-3.389224240E0,4.411694974E-1,-7.892668167E-1,3.507764756E0
3.809536042E0,-3.890484695E0,8.688962460E-4,-9.784914860E-1,4.011647730E0
3.819487042E0,-4.376139809E0,-5.047170371E-1,-1.168851100E0,4.557581794E0
3.829439042E0,-4.760057464E0,-9.699057269E-1,-1.284463125E0,5.024809419E0
3.839390042E0,-4.950022976E0,-1.230166465E0,-1.245693454E0,5.250503707E0
3.849341042E0,-4.899318261E0,-1.220171235E0,-9.828552631E-1,5.143747829E0
3.859292042E0,-4.584024406E0,-8.379095113E-1,-5.528679809E-1,4.692657574E0
3.869244042E0,-4.111704159E0,-9.818586051E-2,-3.369165659E-3,4.112877692E0
3.879195042E0,-3.574847024E0,8.908601421E-1,6.095032346E-1,3.734254575E0
3.889146042E0,-3.040487820E0,1.921630121E0,1.089775110E0,3.758302582E0
3.899098042E0,-2.745737573E0,2.646762046E0,1.285352194E0,4.024494304E0
3.909049042E0,-2.894002496E0,2.732393349E0,1.200752339E0,4.157286380E0
3.919000042E0,-3.314552080E0,2.269150028E0,7.191739038E-1,4.080748515E0
3.928951042E0,-3.450099017E0,1.654734548E0,-6.842177868E-2,3.827010738E0
3.938903042E0,-3.221505337E0,1.113438499E0,-4.400766528E-1,3.436787656E0
3.948854042E0,-2.872809556E0,7.148548579E-1,-7.262724236E-1,3.048200099E0
3.958805042E0,-2.346396717E0,3.798678732E-1,-1.226925938E0,2.674925123E0
3.968757042E0,-1.579031524E0,1.533666193E-1,-1.656120776E0,2.293381324E0
3.978708042E0,-7.076551813E-1,-1.713351130E-1,-1.692296476E0,1.842280907E0
3.988659042E0,-1.473586053E-1,-4.368817341E-1,-1.465963476E0,1.536759292E0
3.998610042E0,2.750021535E-1,-8.044464809E-1,-1.008532434E0,1.319051930E0
4.008562042E0,4.324904752E-1,-1.275713351E0,-6.330648825E-1,1.488376200E0
4.018513042E0,4.441626871E-1,-1.677922851E0,-1.772829008E-1,1.744744913E0
4.028464042E0,4.005138069E-1,-1.982573896E0,2.542381060E-1,2.038540551E0
4.038415042E0,2.576101953E-1,-2.286872354E0,4.149909282E-1,2.338453687E0
4.048367042E0,3.143281871E-1,-2.286856567E0,7.843171486E-1,2.437964018E0
4.058318042E0,4.773169845E-1,-2.183301793E0,1.032550457E0,2.461868938E0
4.068269042E0,8.263776326E-1,-2.291922010E0,7.708594894E-1,2.555392503E0
4.078221042E0,1.342139475E0,-2.209174553E0,8.059908767E-1,2.707658004E0
4.088172042E0,1.882697605E0,-2.329085743E0,1.335025899E0,3.278945688E0
4.098123042E0,1.636433347E0,-2.076767278E0,1.751948893E0,3.171782047E0
4.108074042E0,1.635639880E0,-1.902097498E0,1.718285011E0,3.040690068E0
4.118026042E0,1.732593732E0,-1.684878699E0,1.326505336E0,2.756866641E0
4.127977042E0,1.938860697E0,-1.495970948E0,1.092077305E0,2.681369560E0
4.137928042E0,2.046467591E0,-1.580367905E0,1.025957282E0,2.781758555E0
4.147880042E0,4.011203971E0,-1.815327741E0,-4.411909859E-1,4.424909218E0
4.157831042E0,5.209346990E0,-1.355437213E0,1.246911867E0,5.525332144E0
4.167782042E0,4.168373619E0,-1.543619324E0,-5.622248416E-1,4.480423643E0
4.177733042E0,4.344074264E0,-1.513233683E0,-1.692190057E0,4.901465554E0
4.187685000E0,4.199309483E0,-1.038082507E0,-1.022153961E0,4.444841296E0
4.197636000E0,3.866326924E0,-1.239261809E0,-9.037348339E-1,4.159445920E0
4.207587000E0,3.800038794E0,-1.214943824E0,-8.793170075E-1,4.085288452E0
4.217538000E0,4.074280225E0,-8.820998436E-1,-1.152234775E0,4.324986065E0
4.227490000E0,4.603433946E0,-8.959402031E-1,-1.844824605E0,5.039612164E0
4.237441000E0,5.258127387E0,-1.253183445E0,-1.532771569E0,5.618519471E0
4.247392000E0,4.866156946E0,-1.491776156E0,-1.393550680E0,5.277012699E0
4.257344000E0,4.668093041E0,-1.603577843E0,-1.563420335E0,5.177532007E0
4.267295000E0,4.465714476E0,-1.698103931E0,-1.510601267E0,5.010796237E0
4.277246000E0,4.236648633E0,-1.588496704E0,-1.272621928E0,4.700221270E0
4.287197000E0,4.214769521E0,-1.103060276E0,-9.398357626E-1,4.456940133E0
4.297149000E0,4.027474433E0,-9.141811770E-1,-1.054166297E0,4.262340216E0
4.307100000E0,3.712873181E0,-1.382440825E0,-1.465632670E0,4.224292724E0
4.317051000E0,3.385563006E0,-1.473691887E0,-9.455415487E-1,3.811542137E0
4.327002000E0,2.959032598E0,-1.888545406E0,-3.358126116E-1,3.526364668E0
4.336954000E0,2.966683679E0,-2.544938048E0,7.949711410E-1,3.988721704E0
4.346905000E0,2.722379408E0,-3.303999025E0,1.380016569E0,4.498022335E0
4.356856000E0,2.623338684E0,-3.203300616E0,1.369457667E0,4.361015363E0
4.366808000E0,3.963881285E0,-4.736504880E0,2.890129008E0,6.819067312E0
4.376759000E0,1.105358816E0,-1.512367126E0,-2.866738976E0,3.424509424E0
4.386710000E0,1.318672845E0,-8.238107049E-1,-1.658084418E0,2.273060951E0
4.396661000E0,7.083322889E-1,-9.415818143E-1,-2.510024908E0,2.772820943E0
4.406613000E0,6.141658044E-1,-8.660983533E-1,-2.449267659E0,2.669501463E0
4.416564000E0,4.054693222E-1,-3.526270988E0,-1.053512725E0,3.702550677E0
4.426515000E0,1.425475162E-1,-5.063301669E0,-1.253667156E-1,5.066859027E0
4.436467000E0,5.056625319E-1,-5.758936729E0,1.270610340E0,5.919079108E0
4.446418000E0,1.301922911E0,-6.248892471E0,2.944157281E0,7.029347229E0
4.456369000E0,2.091979394E0,-6.892131801E0,6.232323800E0,9.524689942E0
4.466320000E0,2.143674628E0,-6.233354664E0,8.011713384E0,1.037485434E1
4.476272000E0,1.981637172E0,-6.141913567E0,8.135822875E0,1.038468112E1
4.486223000E0,2.104496529E0,-3.772787846E0,6.994131800E0,8.220748956E0
4.496174000E0,2.197276638E0,-2.485481220E0,6.444930900E0,7.248639585E0
4.506125000E0,1.894285617E0,-1.419360729E0,5.532053068E0,6.017184892E0
4.516077000E0,1.440465084E0,-5.229398847E-1,4.377427951E0,4.637917771E0
4.526028000E0,7.826761276E-1,7.027242243E-2,3.463463706E0,3.551492781E0
4.535979000E0,-2.658670485E-1,2.218778604E-1,3.021770883E0,3.041548017E0
4.545931000E0,-4.926173937E-1,3.365534538E-1,2.984910035E0,3.043949415E0
4.555882000E0,-1.640893019E0,2.312626415E-1,2.757424110E0,3.217048342E0
4.565833000E0,-2.647114340E0,1.142697966E-1,2.696787314E0,3.780599653E0
4.575784000E0,-3.345418070E0,6.805223465E-2,2.672761105E0,4.282534891E0
4.585736000E0,-3.839320974E0,-7.843455076E-2,2.571738760E0,4.621728872E0
4.595687000E0,-4.192981626E0,-2.324098653E-1,2.386309519E0,4.830070640E0
4.605638000E0,-4.346240365E0,-2.668072808E-1,2.218949343E0,4.887200387E0
4.615590000E0,-4.371229025E0,-2.513565981E-1,2.112357087E0,4.861365631E0
4.625541000E0,-4.341164397E0,-1.554131448E-1,2.203383032E0,4.870806745E0
4.635492000E0,-4.356815054E0,-1.548553205E-1,2.299399868E0,4.928798772E0
4.645443000E0,-4.426671155E0,-2.254961175E-1,2.509668227E0,5.093594077E0
4.655395000E0,-4.721018821E0,-4.089834988E-1,2.878845052E0,5.544640209E0
4.665346000E0,-5.018900253E0,-5.510755169E-1,3.568607168E0,6.182879676E0
4.675297000E0,-5.143499740E0,-4.407543451E-1,4.211995018E0,6.662638817E0
4.685248000E0,-5.125892605E0,-1.422721124E-1,4.574019820E0,6.871438980E0
4.695200000E0,-5.139503753E0,2.311264014E-1,4.554973977E0,6.871368581E0
4.705151000E0,-5.157107965E0,5.811348832E-1,4.077640035E0,6.600047619E0
4.715102000E0,-5.127699394E0,8.956519353E-1,3.321987984E0,6.175038270E0
4.725054000E0,-4.993370724E0,1.164004635E0,2.536732650E0,5.720460691E0
4.735005000E0,-4.757438496E0,1.543052729E0,1.755973824E0,5.300724181E0
4.744956000E0,-4.639073895E0,1.839466801E0,8.702750194E-1,5.065769766E0
4.754907000E0,-4.542784871E0,2.036469437E0,1.099031691E-1,4.979576373E0
4.764859000E0,-4.283242756E0,2.200804263E0,-3.390496302E-1,4.827490296E0
4.774810000E0,-4.229718513E0,2.179033910E0,-7.182264356E-1,4.811918193E0
4.784761000E0,-4.338926960E0,2.009917815E0,-1.455500615E0,4.998453643E0
4.794712000E0,-4.239486287E0,1.905104136E0,-1.992584914E0,5.056981351E0
4.804664000E0,-3.817348891E0,1.894811282E0,-2.069150695E0,4.737493742E0
4.814615000E0,-3.329471251E0,1.899876140E0,-2.276117570E0,4.458208088E0
4.824566000E0,-3.157802846E0,1.601958749E0,-2.397468345E0,4.276195168E0
4.834518000E0,-2.824252523E0,1.467723050E0,-2.033693179E0,3.777104871E0
4.844469000E0,-2.678224744E0,1.247533280E0,-1.712670515E0,3.415035484E0
4.854420000E0,-2.747699606E0,1.012931294E0,-1.633800931E0,3.353384620E0
4.864371000E0,-2.704912605E0,9.561080521E-1,-1.566043396E0,3.268514453E0
4.874323000E0,-2.456662633E0,9.211072040E-1,-1.853567362E0,3.212373225E0
4.884274000E0,-1.946204507E0,1.092930560E0,-2.006003104E0,3.001042760E0
4.894225000E0,-1.636240243E0,1.151260044E0,-1.664153827E0,2.602323920E0
4.904176000E0,-1.442773711E0,8.435462272E-1,-1.904545727E0,2.533862791E0
4.914128000E0,-1.365070647E0,6.770818448E-1,-1.763142511E0,2.330349589E0
4.924079000E0,-1.565033874E0,5.691352272E-1,-1.402182194E0,2.177007313E0
4.934030000E0,-1.815667610E0,7.679247719E-1,-1.470828506E0,2.459612534E0
4.943982000E0,-2.107943024E0,9.781093705E-1,-1.692920959E0,2.875083147E0
4.953933000E0,-2.382780724E0,1.131937335E0,-1.800247772E0,3.193715415E0
4.963884000E0,-2.884755417E0,1.063465270E0,-1.720899886E0,3.523388797E0
4.973835000E0,-2.955738861E0,1.072874025E0,-1.695193187E0,3.572272502E0
4.983787000E0,-3.525072309E0,1.113882887E0,-1.289495677E0,3.915312117E0
4.993738000E0,-3.749773205E0,1.299758856E0,-1.209140974E0,4.148758136E0
5.003689000E0,-4.125208889E0,1.272106789E0,-1.158436478E0,4.469628523E0
5.013640000E0,-4.757907443E0,1.122982324E0,-1.350040525E0,5.071625179E0
5.023592000E0,-5.340798830E0,9.913006890E-1,-1.722946558E0,5.698715122E0
5.033543000E0,-5.585353947E0,1.050082163E0,-1.854172110E0,5.978026888E0
5.043494000E0,-5.575139446E0,1.132532582E0,-1.611810722E0,5.912930212E0
5.053446000E0,-5.544945593E0,1.106408976E0,-1.332175820E0,5.809066609E0
5.063397000E0,-5.805164232E0,1.022518389E0,-1.132226772E0,6.002283988E0
5.073348000E0,-5.947281978E0,1.102502452E0,-1.057365016E0,6.140333489E0
5.083299000E0,-5.949691615E0,1.194944007E0,-1.089398403E0,6.165509742E0
5.093251000E0,-5.805760063E0,1.269419408E0,-9.186104429E-1,6.013494881E0
5.103202000E0,-5.791640207E0,1.265902308E0,-9.022557807E-1,5.996638261E0
5.113153000E0,-5.639072317E0,1.504150034E0,-8.083261085E-1,5.891943229E0
5.123104000E0,-5.343144733E0,1.866798441E0,-1.275364273E0,5.801783009E0
5.133056000E0,-4.924625010E0,1.994818550E0,-1.903265187E0,5.643903871E0
5.143007000E0,-4.585590290E0,1.783614782E0,-3.125671227E0,5.829128633E0
5.152958000E0,-4.350902057E0,1.410164813E0,-2.569280591E0,5.245961901E0
5.162910000E0,-4.782602574E0,8.937170917E-1,-1.201216754E0,5.011480750E0
5.172861000E0,-4.704575866E0,8.869629729E-1,-1.239974585E0,4.945429644E0
5.182812000E0,-5.057584262E0,6.460307908E-1,-1.704609689E0,5.376077431E0
5.192763000E0,-4.661363481E0,5.069980359E-1,-2.451600698E0,5.291096530E0
5.202715000E0,-4.070139812E0,1.846422064E-1,-3.460703820E0,5.345708724E0
5.212666000E0,-3.918024496E0,1.630653960E-1,-3.556696390E0,5.294109509E0
5.222617000E0,-2.930368669E0,-7.990109092E-1,-3.745913458E0,4.822587128E0
5.232568000E0,-1.877981388E0,-1.481550545E0,-3.529743065E0,4.263905746E0
5.242520000E0,-3.578960833E-1,-1.566778391E0,-2.938909990E0,3.349638198E0
5.252471000E0,1.479357255E0,-1.832488734E0,-2.682756336E0,3.569831145E0
5.262422000E0,2.683091966E0,-2.261897727E0,-2.946344140E0,4.582150981E0
5.272374000E0,3.577235027E0,-2.451030595E0,-2.512017639E0,5.011426347E0
5.282325000E0,4.034576461E0,-2.534052286E0,-1.908472717E0,5.132396742E0
5.292276000E0,4.416067229E0,-2.138158364E0,-1.285279981E0,5.072012972E0
5.302227000E0,4.211896784E0,-1.854979464E0,-9.180385852E-1,4.692954099E0
5.312179000E0,3.496411597E0,-2.154014844E0,-1.209625196E-1,4.108443249E0
5.322130000E0,2.408978004E0,-1.951767256E0,7.289443088E-1,3.184953728E0
5.332081000E0,2.057602151E0,-1.059628912E0,1.510026047E0,2.763461363E0
5.342032000E0,1.290164745E0,-1.727934086E-1,2.251592009E0,2.600778577E0
5.351984000E0,7.491595951E-1,5.675307512E-3,2.802817215E0,2.901216408E0
5.361935000E0,5.609441552E-1,-1.443239003E-1,2.869639195E0,2.927510349E0
5.371886000E0,6.284970376E-1,-1.808643204E-1,2.922522583E0,2.994805282E0
5.381837000E0,1.286449132E0,-3.950390589E-1,3.244187272E0,3.512229816E0
5.391789000E0,6.878512466E-1,6.665591955E-2,3.160476193E0,3.235149474E0
5.401740000E0,4.887073606E-1,3.864389741E-1,3.124601187E0,3.186110880E0
5.411691000E0,5.722313279E-1,4.456110424E-1,2.971967808E0,3.059184621E0
5.421643000E0,1.142917237E-1,6.395719564E-1,3.091643940E0,3.159173490E0
5.431594000E0,-2.165960705E-1,6.033443624E-1,3.158589882E0,3.222984381E0
5.441545000E0,-4.853571984E-1,3.757397389E-1,3.214039028E0,3.272124514E0
5.451496000E0,-7.993933171E-1,-2.091841400E-2,3.540920602E0,3.630094484E0
5.461448000E0,-1.052183068E0,-5.060607272E-1,4.106422369E0,4.269179235E0
5.471399000E0,-1.032345219E0,-5.606170034E-1,4.684209137E0,4.829269439E0
5.481350000E0,-1.138729461E0,-6.802925509E-1,5.381770270E0,5.542829059E0
5.491301000E0,-1.136620370E0,-8.819057161E-1,5.559563048E0,5.742682722E0
5.501253000E0,-8.396075428E-1,-8.802597249E-1,5.352793808E0,5.489280423E0
5.511204000E0,-7.518648094E-1,-7.513736433E-1,5.153589696E0,5.262067065E0
5.521155000E0,-3.454108161E-1,-1.097193764E0,4.819307008E0,4.954680901E0
5.531107000E0,5.567771369E-1,-1.518786199E0,4.550300882E0,4.829280528E0
5.541058000E0,8.132728529E-1,-1.830282580E0,3.688973272E0,4.197602989E0
5.551009000E0,1.095032049E0,-2.153715466E0,3.637225413E0,4.366576944E0
5.560960000E0,9.127731675E-1,-1.886398308E0,4.823908474E0,5.259443545E0
5.570912000E0,4.931278557E-1,-2.021156749E0,4.738402301E0,5.175007831E0
5.580863000E0,5.118997568E-1,-2.327632710E0,4.093365537E0,4.736618711E0
5.590814000E0,1.012952929E0,-2.029487277E0,3.391310234E0,4.079935949E0
5.600765000E0,1.867172663E0,-2.211509346E0,2.940073586E0,4.125668434E0
5.610717000E0,1.179922510E0,-2.807859269E0,2.388815928E0,3.870753459E0
5.620668000E0,1.146368263E0,-2.592799847E0,2.513775312E0,3.788909811E0
5.630619000E0,1.034297020E0,-2.515350552E0,2.282018873E0,3.550263210E0
5.640570000E0,1.193540091E0,-2.293262776E0,1.975293674E0,3.253517667E0
5.650522000E0,1.396785214E0,-2.188540313E0,2.035443981E0,3.299052870E0
5.660473000E0,1.244055941E0,-2.384886891E0,1.752660646E0,3.210479716E0
5.670424000E0,1.206093478E0,-2.527680575E0,1.707170477E0,3.279978904E0
5.680376000E0,1.264644572E0,-2.915036978E0,1.548345190E0,3.534704981E0
5.690327000E0,1.539495283E0,-3.165793651E0,1.532659303E0,3.839445234E0
5.700278000E0,1.931071621E0,-3.228310327E0,1.832020372E0,4.184175404E0
5.710229000E0,2.217261837E0,-3.440341476E0,1.927799957E0,4.524225039E0
5.720181000E0,2.465182611E0,-3.773128738E0,1.505159702E0,4.751750363E0
5.730132000E0,2.651779541E0,-3.950690551E0,1.358310535E0,4.948221709E0
5.740083000E0,2.956577936E0,-3.448408295E0,1.666384979E0,4.838358374E0
5.750034000E0,2.940237308E0,-3.139651920E0,1.654316618E0,4.608597734E0
5.759986000E0,2.955170512E0,-3.159778036E0,1.657755950E0,4.633075089E0
5.769937000E0,3.577693741E0,-2.513169540E0,1.294531592E0,4.559794479E0
5.779888000E0,3.845515514E0,-2.203477610E0,1.096488444E0,4.565697105E0
5.789839000E0,4.026265229E0,-2.103374448E0,7.641420619E-1,4.606398686E0
5.799791000E0,4.022787890E0,-2.100623918E0,4.101776464E-1,4.556719099E0
5.809742000E0,3.923844230E0,-2.000735933E0,4.511945486E-2,4.404717196E0
5.819693000E0,3.836829475E0,-1.811771464E0,-4.212638211E-1,4.263946466E0
5.829645000E0,3.726933981E0,-1.737040540E0,-1.046557754E0,4.242950608E0
5.839596000E0,3.902029438E0,-1.687132215E0,-1.679816325E0,4.570998987E0
5.849547000E0,4.323422483E0,-1.588172184E0,-2.338586884E0,5.165584329E0
5.859498000E0,4.859616836E0,-1.519542244E0,-3.038117359E0,5.929168703E0
5.869450000E0,5.299870074E0,-1.651029167E0,-3.477221035E0,6.550235587E0
5.879401000E0,5.484375456E0,-1.894586164E0,-3.706896157E0,6.885412841E0
5.889352000E0,5.430230824E0,-1.826622807E0,-3.735822333E0,6.839614476E0
5.899303000E0,4.967071118E0,-2.198278266E0,-3.686103458E0,6.564417836E0
5.909255000E0,4.366634576E0,-2.440258269E0,-3.566448376E0,6.143444633E0
5.919206000E0,3.861224644E0,-2.641146964E0,-3.560739155E0,5.879079551E0
5.929157000E0,3.488010902E0,-2.725502406E0,-3.585241327E0,5.696361891E0
5.939108000E0,3.310851962E0,-2.717310457E0,-3.468438517E0,5.511404773E0
5.949060000E0,3.142797722E0,-2.650781422E0,-3.257447587E0,5.245453693E0
5.959011000E0,2.795855520E0,-2.659783210E0,-3.012490182E0,4.895544087E0
5.968962000E0,2.319326155E0,-2.691348819E0,-2.737453530E0,4.485118071E0
5.978914000E0,2.166971104E0,-2.574464732E0,-2.644735401E0,4.279983384E0
5.988865000E0,1.201516278E0,-2.558207719E0,-2.288631928E0,3.636743626E0
5.998816000E0,7.690240484E-1,-2.322825714E0,-2.063221618E0,3.200593809E0
6.008767000E0,3.493980324E-1,-2.042869214E0,-2.073906674E0,2.931975870E0
6.018719000E0,7.298436105E-2,-1.889599659E0,-2.286150223E0,2.966883286E0
6.028670000E0,-7.230082154E-2,-1.627004128E0,-2.118603229E0,2.672236793E0
6.038621000E0,-3.061192811E-1,-1.294834916E0,-1.833252965E0,2.265198205E0
6.048572000E0,-6.770835990E-1,-9.391107810E-1,-1.718501797E0,2.072105133E0
6.058524000E0,-1.158305939E0,-5.566274482E-1,-1.579692698E0,2.036402657E0
6.068475000E0,-1.592868960E0,-9.821918964E-2,-1.229624574E0,2.014660052E0
6.078426000E0,-2.129025013E0,2.390768605E-1,-9.780058748E-1,2.355079774E0
6.088377000E0,-2.594651367E0,6.195165914E-1,-8.152199757E-1,2.789372713E0
6.098329000E0,-2.999594733E0,9.843711537E-1,-7.300204888E-1,3.240290888E0
6.108280000E0,-3.237179091E0,1.286360546E0,-9.650918604E-1,3.614616746E0
6.118231000E0,-3.384355263E0,1.632633242E0,-1.135062233E0,3.925266631E0
6.128182000E0,-3.451380727E0,1.988506481E0,-1.139533453E0,4.143033121E0
6.138134000E0,-3.476869325E0,2.245615570E0,-1.067015992E0,4.274334184E0
6.148085000E0,-3.673521420E0,2.327728604E0,-1.051590160E0,4.474250992E0
6.158036000E0,-3.986274952E0,2.395357500E0,-1.023805068E0,4.761964129E0
6.167988000E0,-4.349368625E0,2.489929197E0,-8.292915925E-1,5.079810960E0
6.177939000E0,-4.808634085E0,2.459488592E0,-5.809955733E-1,5.432274087E0
6.187890250E0,-4.953564634E0,2.481129137E0,-5.207615045E-1,5.564620106E0
6.197841250E0,-5.724079138E0,2.339537641E0,-1.116555065E-2,6.183740213E0
6.207793250E0,-5.837480038E0,2.345933910E0,5.952699423E-2,6.291511946E0
6.217744250E0,-6.131455822E0,2.270994240E0,3.351106533E-1,6.547095882E0
6.227695250E0,-6.371575241E0,2.132883006E0,5.805872914E-1,6.744126524E0
6.237646250E0,-6.498742826E0,1.997967276E0,7.605859315E-1,6.841346542E0
6.247598250E0,-6.582352747E0,1.849718724E0,1.006583557E0,6.911008429E0
6.257549250E0,-6.588932034E0,1.685065809E0,1.266859790E0,6.917977007E0
6.267500250E0,-6.617808509E0,1.532497920E0,1.526537268E0,6.962345536E0
6.277451250E0,-6.711500199E0,1.342657539E0,1.699301733E0,7.052275560E0
6.287403250E0,-6.846224726E0,1.098219951E0,1.816057181E0,7.167631669E0
6.297354250E0,-7.060014718E0,7.622769463E-1,1.746299314E0,7.312621640E0
6.307305250E0,-7.313523676E0,3.181008106E-1,1.589411793E0,7.490997699E0
6.317256250E0,-7.609637786E0,-2.509472930E-1,1.335527152E0,7.730019053E0
6.327208250E0,-7.730723097E0,-7.631493509E-1,1.098160602E0,7.845535880E0
6.337159250E0,-7.609655913E0,-1.088500709E0,9.958711651E-1,7.751351900E0
6.347110250E0,-7.252278185E0,-1.140158520E0,1.024891481E0,7.412550362E0
6.357061250E0,-6.766699669E0,-1.039783462E0,1.160332291E0,6.943755835E0
6.367013250E0,-6.106803961E0,-7.522700214E-1,1.358048287E0,6.301052289E0
6.376964250E0,-5.400788924E0,-2.254417384E-1,1.626077051E0,5.644773826E0
6.386915250E0,-4.756662571E0,3.516562271E-1,1.782099476E0,5.091697110E0
6.396867250E0,-4.166243771E0,9.667926693E-1,2.008405433E0,4.725036255E0
6.406818250E0,-3.601699485E0,1.600955366E0,2.237493203E0,4.532292257E0
6.416769250E0,-3.271037686E0,1.930343058E0,2.197905214E0,4.388245571E0
6.426720250E0,-3.183940193E0,1.806824720E0,1.912882979E0,4.130522002E0
6.436672250E0,-3.119212100E0,1.411578085E0,1.590247360E0,3.775039534E0
6.446623250E0,-2.972473007E0,8.339503616E-1,1.247657534E0,3.329822564E0
6.456574250E0,-2.749316361E0,7.181667209E-2,8.005867338E-1,2.864408701E0
6.466525250E0,-2.464452001E0,-7.552684736E-1,4.555869770E-1,2.617539613E0
6.476477250E0,-2.094795413E0,-1.671376308E0,1.843287957E-1,2.686195021E0
6.486428250E0,-1.728580788E0,-2.672566393E0,7.420818329E-2,3.183725730E0
6.496379250E0,-1.293143317E0,-3.580101625E0,1.182093582E-1,3.808322562E0
6.506330250E0,-7.649204725E-1,-4.310897747E0,2.297689703E-1,4.384260085E0
6.516282250E0,-2.520775598E-1,-4.928754898E0,3.028562424E-1,4.944480746E0
6.526233250E0,1.511195344E-1,-5.301232476E0,5.162901387E-1,5.328457411E0
6.536184250E0,5.100619769E-1,-5.410156748E0,6.950968239E-1,5.478423026E0
6.546135250E0,8.863110083E-1,-5.338103263E0,7.461529568E-1,5.462383902E0
6.556087250E0,1.258982129E0,-5.048387761E0,7.850767019E-1,5.261900837E0
6.566038250E0,1.640342796E0,-4.714922222E0,1.114713192E0,5.115056358E0
6.575989250E0,2.026205819E0,-4.426266235E0,8.484102336E-1,4.941370532E0
6.585940250E0,2.414395450E0,-3.247567547E0,2.750848916E-1,4.056066082E0
6.595892250E0,2.562542844E0,-2.989513548E0,1.632861283E-1,3.940872929E0
6.605843250E0,2.633516933E0,-2.840834057E0,2.798579738E-1,3.883821579E0
6.615794250E0,2.661557840E0,-2.772507003E0,4.229995671E-1,3.866473051E0
6.625746250E0,4.260538602E0,-2.597195783E0,-1.722773919E-1,4.992724168E0
6.635697250E0,5.943971869E0,-3.283182353E0,-1.067517098E0,6.873840316E0
6.645648250E0,5.368347986E0,-3.567923629E0,1.700512984E0,6.666407093E0
6.655599250E0,4.618266578E0,-3.468342038E0,1.553815699E0,5.980980346E0
6.665551250E0,3.848738499E0,-3.375528599E0,8.431217194E-2,5.119969717E0
6.675502250E0,4.011254257E0,-2.682445849E0,7.031276822E-1,4.876480799E0
6.685453250E0,4.220658252E0,-2.134234298E0,-2.765287153E-1,4.737655565E0
6.695404250E0,4.990213813E0,-1.615819573E0,-3.569269073E-1,5.257423666E0
6.705356250E0,5.331899368E0,-1.709982550E0,-9.313069408E-1,5.676312518E0
6.715307250E0,5.042832322E0,-1.699138303E0,-1.190616045E0,5.452962072E0
6.725258250E0,4.773530034E0,-1.320033492E0,-1.029419711E0,5.058535593E0
6.735209250E0,5.026706870E0,-1.159756633E0,-8.021045248E-1,5.220746027E0
6.745161250E0,5.177729926E0,-1.229729093E0,-9.807714616E-1,5.411379998E0
6.755112250E0,4.742669014E0,-1.309935935E0,-9.219224520E-1,5.005874803E0
6.765063250E0,4.129640493E0,-1.240722443E0,-4.191352884E-1,4.332320069E0
6.775014250E0,3.927875885E0,-1.278010722E0,-2.770517488E-1,4.139840341E0
6.784966250E0,3.811479456E0,-1.441750887E0,-4.133032756E-1,4.095954207E0
6.794917250E0,3.767075116E0,-1.550962257E0,-4.655469780E-1,4.100374720E0
6.804868250E0,3.670239378E0,-1.757528014E0,-5.340083715E-1,4.104232785E0
6.814819250E0,3.498478003E0,-2.025101280E0,-5.265077095E-1,4.076468312E0
6.824771250E0,3.229779732E0,-2.405868455E0,-7.383957481E-1,4.094497335E0
6.834722250E0,2.935699868E0,-2.747851633E0,-7.919145821E-1,4.098310752E0
6.844673250E0,2.747684988E0,-2.805929103E0,-6.642448676E-1,3.982992866E0
6.854624250E0,2.608446996E0,-2.714999052E0,-5.371302000E-1,3.803120355E0
6.864576250E0,2.369929129E0,-2.724156377E0,-5.423330525E-1,3.651262409E0
6.874527250E0,2.090813459E0,-2.882517688E0,-5.912995367E-1,3.609715263E0
6.884478250E0,1.821900011E0,-3.161266152E0,-7.691507868E-1,3.728876006E0
6.894429250E0,1.790488769E0,-3.128317677E0,-7.337059888E-1,3.678389049E0
6.904381250E0,1.134915322E0,-4.239575749E0,-1.421561036E0,4.613336222E0
6.914332250E0,9.591474348E-1,-4.813902134E0,-1.652588327E0,5.179253396E0
6.924283250E0,9.685269535E-1,-5.100224497E0,-1.732244215E0,5.472751082E0
6.934234250E0,1.045534199E0,-5.231893269E0,-1.719541870E0,5.605593027E0
6.944186250E0,1.379161121E0,-5.068961774E0,-1.718085036E0,5.527049399E0
6.954137250E0,1.929784064E0,-4.715213998E0,-1.452030000E0,5.297707117E0
6.964088250E0,2.728026649E0,-3.875690655E0,-7.141118230E-1,4.793022339E0
6.974040250E0,3.594269428E0,-2.848509112E0,1.913705975E-2,4.586190479E0
6.983991250E0,4.144487743E0,-1.976013320E0,5.054450154E-1,4.619186288E0
6.993942250E0,4.147776217E0,-1.311753834E0,7.286107251E-1,4.410852442E0
7.003893250E0,3.700337335E0,-1.359401625E0,8.100149305E-1,4.024499144E0
7.013845250E0,3.082799442E0,-1.435482087E0,8.486005604E-1,3.504908577E0
7.023796250E0,2.116143597E0,-1.019212958E0,6.800244561E-1,2.445259094E0
7.033747250E0,1.123675804E0,-1.165630746E0,-1.336767054E-1,1.624565114E0
7.043698250E0,9.788677543E-1,-1.000849777E0,-1.592629516E-1,1.408987950E0
7.053650250E0,1.887370116E-1,-7.581382871E-2,-4.815320961E-1,5.227260810E-1
7.063601250E0,1.086132002E-1,-1.734701654E0,-6.439817803E-1,1.853563915E0
7.073552250E0,2.780362737E-1,-1.339521677E0,-8.057599117E-1,1.587725268E0
7.083503250E0,3.490624022E-1,-6.382691967E-1,-7.549758205E-1,1.048437226E0
7.093455250E0,-3.879101336E-2,-1.164962409E0,-1.417989411E0,1.835575149E0
7.103406250E0,-4.450999957E-1,-9.512098396E-1,-1.446676289E0,1.787676271E0
7.113357250E0,-8.902970552E-1,-9.313579577E-1,-1.523260781E0,1.995088945E0
7.123308250E0,-1.374810208E0,-1.003023187E0,-1.516313704E0,2.279334524E0
7.133260250E0,-1.700342245E0,-8.733021230E-1,-1.416083364E0,2.378888909E0
7.143211250E0,-1.986027262E0,-5.645580268E-1,-1.260312078E0,2.418970149E0
7.153162250E0,-2.264037808E0,-2.494433892E-1,-1.069296406E0,2.516244027E0
7.163113250E0,-2.480934717E0,6.852995217E-2,-8.103983617E-1,2.610838741E0
7.173065250E0,-2.683392220E0,2.842103487E-1,-5.913900223E-1,2.762446649E0
7.183016250E0,-2.849484720E0,4.233524466E-1,-4.547543335E-1,2.916434804E0
7.192967625E0,-2.948233960E0,5.513292861E-1,-4.084569570E-1,3.027025693E0
7.202918625E0,-2.949679391E0,6.912344456E-1,-3.658649611E-1,3.051601340E0
7.212870625E0,-2.890507323E0,8.377837962E-1,-3.211504260E-1,3.026557759E0
7.222821625E0,-2.801173270E0,9.346049166E-1,-2.334375134E-1,2.962186880E0
7.232772625E0,-2.699026213E0,1.063741844E0,-9.844518453E-2,2.902753979E0
7.242723625E0,-2.638922099E0,1.202454171E0,-4.122170091E-2,2.900259489E0
7.252675625E0,-2.547168760E0,1.469108840E0,6.480089039E-2,2.941181503E0
7.262626625E0,-2.612852580E0,1.683451393E0,1.318509123E-1,3.111011389E0
7.272577625E0,-2.707819256E0,1.845720983E0,2.429123417E-1,3.286027614E0
7.282528625E0,-2.927296250E0,1.991527737E0,4.827180576E-1,3.573270601E0
7.292480625E0,-3.194701701E0,2.040292346E0,7.098639670E-1,3.856529355E0
7.302431625E0,-3.433695823E0,2.051560516E0,7.806991839E-1,4.075372225E0
7.312382625E0,-3.530750248E0,2.196300738E0,8.062807524E-1,4.235566419E0
7.322333625E0,-3.490577245E0,2.436211996E0,8.602596161E-1,4.342730132E0
7.332285625E0,-3.471122389E0,2.586442754E0,8.254710218E-1,4.406787851E0
7.342236625E0,-3.446211496E0,2.627554527E0,7.998379979E-1,4.406830753E0
7.352187625E0,-3.410373034E0,2.644634244E0,8.222667477E-1,4.393274078E0
7.362138625E0,-3.390373802E0,2.662012753E0,8.413722324E-1,4.391907747E0
7.372090625E0,-3.416651774E0,2.656325752E0,8.210508192E-1,4.404963143E0
7.382041625E0,-3.479755218E0,2.610536206E0,8.517162493E-1,4.432721086E0
7.391992625E0,-3.559439319E0,2.525220067E0,7.800966284E-1,4.433384193E0
7.401943625E0,-3.649852768E0,2.411853665E0,6.272799397E-1,4.419495837E0
7.411895625E0,-3.738843297E0,2.256346965E0,4.718328810E-1,4.392343007E0
7.421846625E0,-3.812509736E0,2.059677621E0,2.909495571E-1,4.343058143E0
7.431797625E0,-3.782210926E0,1.715097694E0,1.224480048E-1,4.154716970E0
7.441749625E0,-3.767806018E0,1.566448023E0,1.066733864E-1,4.081850170E0
7.451700625E0,-3.791315333E0,1.433623842E0,1.723268008E-1,4.056974957E0
7.461651625E0,-3.921747711E0,1.293346800E0,3.177894464E-1,4.141719593E0
7.471602625E0,-4.177891717E0,1.119195083E0,4.620063427E-1,4.349807662E0
7.481554625E0,-4.566821313E0,7.704303038E-1,4.342133573E-1,4.651662175E0
7.491505625E0,-5.044142098E0,3.572344708E-1,2.509551868E-1,5.062999553E0
7.501456625E0,-5.488539258E0,-1.807842135E-1,1.963027239E-2,5.491550917E0
7.511407625E0,-5.856253109E0,-7.916247064E-1,-1.409766617E-1,5.911196543E0
7.521359625E0,-6.060843676E0,-1.337335403E0,-1.835940930E-1,6.209347698E0
7.531310625E0,-5.996352396E0,-1.624077011E0,-7.557087690E-2,6.212855958E0
7.541261625E0,-5.707814523E0,-1.692023996E0,2.503950235E-1,5.958589556E0
7.551212625E0,-5.247589535E0,-1.522628989E0,6.206281471E-1,5.499161232E0
7.561164625E0,-4.706203146E0,-1.146021523E0,1.012508540E0,4.948422671E0
7.571115625E0,-4.124418053E0,-6.264823794E-1,1.425393009E0,4.408520123E0
7.581066625E0,-3.483707643E0,4.062586963E-2,1.777501226E0,3.911186523E0
7.591017625E0,-2.713739562E0,8.784845102E-1,1.958515235E0,3.460043261E0
7.600968625E0,-2.151870377E0,1.492832748E0,1.869777013E0,3.217943724E0
7.610920625E0,-1.829417776E0,1.675805574E0,1.497650561E0,2.897939082E0
7.620871625E0,-1.672170652E0,1.568119742E0,1.136399345E0,2.558624179E0
7.630822625E0,-1.335077501E0,1.316873072E0,5.943668398E-1,1.967195608E0
7.640774625E0,-8.289816901E-1,1.004087965E0,-4.116422278E-1,1.365596063E0
7.650725625E0,-3.684234104E-1,7.974795234E-1,-8.689322063E-1,1.235618298E0
7.660676625E0,-2.041128498E-1,5.574162376E-1,-5.109542620E-1,7.832299632E-1
7.670627625E0,-4.518508986E-1,-3.658608681E-1,-9.612050700E-1,1.123360403E0
7.680579625E0,-7.243179917E-1,-1.086290461E0,-8.907712644E-1,1.580549577E0
7.690530625E0,-8.566071528E-1,-1.637941929E0,-5.757963753E-1,1.936019381E0
7.700481625E0,-1.146817330E0,-2.230781184E0,-3.025510177E-1,2.526482099E0
7.710432625E0,-1.406896219E0,-2.768001723E0,2.527245542E-1,3.115294563E0
7.720384625E0,-4.109978646E-1,-3.065658329E0,1.915232098E-1,3.099009741E0
7.730335625E0,1.214086622E0,-3.330935978E0,9.249356684E-1,3.663965994E0
7.740286625E0,4.431055105E-1,-3.788439673E0,6.612505084E-1,3.871158726E0
7.750237625E0,-3.219816077E-1,-3.276546348E0,9.525532374E-1,3.427358428E0
7.760189625E0,-6.621667671E-1,-2.644201550E0,1.288184585E0,3.014910644E0
7.770140625E0,-7.962533623E-1,-2.195089779E0,1.472498178E0,2.760559625E0
7.780091625E0,-5.962113440E-1,-1.796791483E0,8.449352333E-1,2.073124007E0
7.790042625E0,-5.076131630E-1,-1.603126438E0,9.076931065E-1,1.910913989E0
7.799994625E0,-3.446191031E-1,-1.522003922E0,7.685173872E-1,1.739504883E0
7.809945625E0,-2.793203223E-1,-1.593705989E0,8.437947339E-1,1.824803599E0
7.819896625E0,-2.474249303E-2,-1.601748834E0,9.529710209E-1,1.863964936E0
7.829847625E0,3.122565186E-1,-1.626565002E0,1.060712401E0,1.966806710E0
7.839799625E0,6.486246157E-1,-1.678414602E0,1.163006516E0,2.142515723E0
7.849750625E0,1.152992574E0,-1.624809667E0,1.194299937E0,2.322875517E0
7.859701625E0,1.611920065E0,-1.572477672E0,1.123722582E0,2.516689247E0
7.869652625E0,1.967741849E0,-1.528371540E0,1.069200804E0,2.711294508E0
7.879604625E0,2.087198126E0,-1.650024616E0,1.006499649E0,2.844647393E0
7.889555625E0,2.489691215E0,-1.581426836E0,9.403974608E-1,3.095774631E0
7.899506625E0,2.839336000E0,-1.530620379E0,8.983220664E-1,3.348374262E0
7.909457625E0,3.102557184E0,-1.519061603E0,9.125030261E-1,3.572963896E0
7.919409625E0,3.271470380E0,-1.514848684E0,9.915547505E-1,3.739046109E0
7.929360625E0,3.413608591E0,-1.519815894E0,9.700194553E-1,3.860505369E0
7.939311625E0,3.538780521E0,-1.547069181E0,9.166966492E-1,3.969473942E0
7.949262625E0,3.601308306E0,-1.603575504E0,8.140403000E-1,4.025361788E0
7.959214625E0,3.679232395E0,-1.683868007E0,7.542545664E-1,4.115952191E0
7.969165625E0,3.752926024E0,-1.779887182E0,7.154194066E-1,4.214768920E0
7.979116625E0,3.834974154E0,-1.889899621E0,6.147490641E-1,4.319336031E0
7.989067625E0,3.873417258E0,-2.061843137E0,4.103233883E-1,4.407144615E0
7.999019625E0,3.823449292E0,-2.327967463E0,1.335963061E-1,4.478397589E0
8.008970625E0,3.783975908E0,-2.660952069E0,-4.408800602E-2,4.626130493E0
8.018921625E0,3.711514288E0,-2.966546270E0,-1.364582258E-1,4.753352073E0
8.028872625E0,3.709409875E0,-3.168537457E0,-1.687763715E-1,4.881376517E0
8.038824625E0,3.742472956E0,-3.283515059E0,-2.271081948E-1,4.983889355E0
8.048775625E0,3.751806282E0,-3.393803194E0,-3.026703009E-1,5.068092325E0
8.058726625E0,3.882626622E0,-3.445476793E0,-3.144325599E-1,5.200477637E0
8.068677625E0,3.990744563E0,-3.419073691E0,-3.653039208E-1,5.267784547E0
8.078629625E0,3.867657166E0,-3.531926707E0,-4.571835592E-1,5.257594034E0
8.088580625E0,3.548018537E0,-3.739562797E0,-6.934268591E-1,5.201308130E0
8.098531625E0,3.230023561E0,-3.885082161E0,-1.024345936E0,5.155210975E0
8.108482625E0,2.878228755E0,-4.072144822E0,-1.394894517E0,5.178058992E0
8.118434625E0,2.490744883E0,-4.361238473E0,-1.758282305E0,5.321256220E0
8.128385625E0,2.170850732E0,-4.614699776E0,-1.967904401E0,5.466323688E0
8.138336625E0,2.060459393E0,-4.688489591E0,-1.951978633E0,5.480661287E0
8.148287625E0,2.151768343E0,-4.581936073E0,-1.795712379E0,5.371110511E0
8.158238625E0,2.291515628E0,-4.357161502E0,-1.600738142E0,5.176703857E0
8.168190625E0,2.434092965E0,-4.052788492E0,-1.249451459E0,4.889890803E0
8.178141625E0,2.694298739E0,-3.570666558E0,-7.958414260E-1,4.543376381E0
8.188092500E0,3.090118986E0,-2.843807951E0,-2.662640744E-1,4.207965728E0
8.198043500E0,3.318240504E0,-2.086102942E0,1.904063916E-1,3.924130492E0
8.207995500E0,3.262988409E0,-1.548132205E0,4.278752679E-1,3.636878321E0
8.217946500E0,2.993149931E0,-1.259435288E0,4.375787222E-1,3.276674975E0
8.227897500E0,2.593310893E0,-1.148740479E0,3.667934990E-1,2.859965655E0
8.237848500E0,2.124391095E0,-1.130114173E0,2.446513036E-1,2.418687625E0
8.247800500E0,1.596189886E0,-1.198322529E0,1.341055986E-1,2.000445787E0
8.257751500E0,1.233169010E0,-1.146845396E0,8.794504702E-3,1.684053893E0
8.267702500E0,7.947599834E-1,-1.169303382E0,-2.091347310E-1,1.429213478E0
8.277653500E0,7.739783943E-2,-1.510173250E0,-4.832478154E-1,1.587495551E0
8.287605500E0,-3.433373934E-1,-1.645625170E0,-6.852960134E-1,1.815376929E0
8.297556500E0,-6.795996559E-1,-1.714902397E0,-9.576397303E-1,2.078417613E0
8.307507500E0,-9.554250973E-1,-1.694658167E0,-1.023925813E0,2.198437511E0
8.317458500E0,-1.256515773E0,-1.665187030E0,-8.916258350E-1,2.268628741E0
8.327410500E0,-1.499327250E0,-1.577305133E0,-6.516932344E-1,2.271690507E0
8.337361500E0,-1.662499065E0,-1.398576801E0,-4.177166077E-1,2.212330756E0
8.347312500E0,-1.677075005E0,-1.008556992E0,-2.829289314E-1,1.977325607E0
8.357263500E0,-1.684385778E0,-6.337604088E-1,-9.652642071E-2,1.802255547E0
8.367215500E0,-1.751307161E0,-3.392484355E-1,8.388971061E-2,1.785834191E0
8.377166500E0,-1.780502894E0,-2.347072363E-2,1.962670559E-1,1.791441371E0
8.387117500E0,-1.707749498E0,3.439232844E-1,2.799755028E-1,1.764391639E0
8.397068500E0,-1.666718416E0,6.471335757E-1,3.402094254E-1,1.820020494E0
8.407020500E0,-1.634651116E0,7.859225017E-1,3.213667729E-1,1.842019287E0
8.416971500E0,-1.562722762E0,1.052884149E0,3.239535812E-1,1.911965843E0
8.426922500E0,-1.531484597E0,1.234820264E0,1.769098485E-1,1.975227392E0
8.436873500E0,-1.547604494E0,1.391124524E0,5.927907228E-2,2.081783159E0
8.446825500E0,-1.650340365E0,1.411366416E0,-3.484940529E-4,2.171538303E0
8.456776500E0,-1.777584841E0,1.466101617E0,-3.124781281E-2,2.304395418E0
8.466727500E0,-1.845254083E0,1.608000092E0,9.677434266E-3,2.447594856E0
8.476678500E0,-1.946100427E0,1.666902019E0,-1.295158267E-4,2.562395213E0
8.486630500E0,-2.010996627E0,1.816950343E0,1.879701492E-1,2.716753349E0
8.496581500E0,-2.138449263E0,1.948330847E0,3.354000905E-1,2.912293179E0
8.506532500E0,-2.343546492E0,1.983449809E0,4.955515265E-1,3.109960550E0
8.516483500E0,-2.575238904E0,2.022705091E0,7.011326122E-1,3.348847300E0
8.526435500E0,-2.817164528E0,2.087230870E0,8.609911028E-1,3.610298376E0
8.536386500E0,-3.048417521E0,2.160452628E0,9.993555209E-1,3.867701695E0
8.546337500E0,-3.138335711E0,2.192651491E0,1.020849009E0,3.962196903E0
8.556288500E0,-3.402973090E0,2.257174346E0,1.160370298E0,4.245176217E0
8.566240500E0,-3.449455824E0,2.334794964E0,1.187857474E0,4.331399125E0
8.576191500E0,-3.551197084E0,2.312836331E0,1.081115383E0,4.373673866E0
8.586142500E0,-3.671343040E0,2.243885379E0,9.976650909E-1,4.416912603E0
8.596093500E0,-3.763649525E0,2.143573471E0,8.862487355E-1,4.421018185E0
8.606045500E0,-3.863139314E0,2.029579663E0,7.749721286E-1,4.432112450E0
8.615996500E0,-3.970816960E0,1.940850504E0,6.703911683E-1,4.470314567E0
8.625947500E0,-4.121728041E0,1.802755643E0,5.417489156E-1,4.531231824E0
8.635898500E0,-4.206615871E0,1.680380436E0,4.678404021E-1,4.553918109E0
8.645850500E0,-4.256546415E0,1.506981840E0,4.807545626E-1,4.540958776E0
8.655801500E0,-4.279321613E0,1.389126531E0,4.998232099E-1,4.526818886E0
8.665752500E0,-4.314563951E0,1.252838459E0,4.630667353E-1,4.516580243E0
8.675703500E0,-4.409792874E0,1.083039410E0,3.778847900E-1,4.556538650E0
8.685655500E0,-4.572064219E0,7.829339898E-1,2.798033023E-1,4.647047099E0
8.695606500E0,-4.551807709E0,7.736076808E-1,2.843582833E-1,4.625827699E0
8.705557500E0,-4.823916368E0,2.857294554E-1,1.707951227E-1,4.835388446E0
8.715508500E0,-5.151832023E0,-2.805716264E-1,5.706093103E-2,5.159781931E0
8.725459500E0,-5.449069383E0,-8.694131398E-1,-3.145918965E-2,5.518081735E0
8.735411500E0,-5.637748507E0,-1.338784343E0,-3.428807259E-2,5.794629187E0
8.745362500E0,-5.677951623E0,-1.625137112E0,8.682618231E-2,5.906584804E0
8.755313500E0,-5.490940125E0,-1.600034430E0,3.255647814E-1,5.728571031E0
8.765264500E0,-5.083854048E0,-1.325990635E0,6.891928902E-1,5.298944233E0
8.775216500E0,-4.515617830E0,-7.898968542E-1,1.198345625E0,4.738224737E0
8.785167500E0,-3.891970473E0,-1.159935558E-1,1.634326888E0,4.222784987E0
8.795118500E0,-3.321545350E0,5.251372683E-1,1.982145588E0,3.903502759E0
8.805069500E0,-2.776448903E0,1.151334304E0,2.150505637E0,3.695796759E0
8.815021500E0,-2.511933439E0,1.500331217E0,2.090579571E0,3.596015337E0
8.824972500E0,-2.551103352E0,1.483710507E0,1.713634136E0,3.412633460E0
8.834923500E0,-2.435701827E0,1.273197294E0,6.251027289E-1,2.818586199E0
8.844874500E0,-1.967114150E0,1.154720426E0,-5.126581407E-1,2.337891296E0
8.854826500E0,-1.708192717E0,1.157914760E0,2.216281843E-1,2.075525958E0
8.864777500E0,-1.650133081E0,3.498196167E-1,-2.220664331E-1,1.701360177E0
8.874728500E0,-1.576119318E0,-3.150813085E-1,-1.678416941E-1,1.616044297E0
8.884679500E0,-1.334794788E0,-7.954300743E-1,4.741653353E-2,1.554552816E0
8.894631500E0,-1.074301915E0,-1.429537223E0,-1.911653602E-1,1.798400810E0
8.904582500E0,-9.063377219E-1,-2.097521970E0,-8.568714470E-2,2.286567026E0
8.914533500E0,-3.961886215E-1,-2.638987003E0,3.415873218E-1,2.690334500E0
8.924484500E0,2.555239087E-1,-3.181930797E0,5.530530453E-2,3.192653245E0
8.934436500E0,2.535526369E0,-3.351971921E0,1.047922786E0,4.331599231E0
8.944387500E0,9.812043017E-1,-4.030503291E0,1.751603615E-1,4.151915198E0
8.954338500E0,-6.604511940E-1,-3.923587537E0,3.101757869E-1,3.990857547E0
8.964289500E0,-5.467918468E-1,-2.600173185E0,1.485430465E0,3.044073847E0
8.974241500E0,-2.683965540E-1,-1.943098758E0,1.154936188E0,2.276301187E0
8.984192500E0,-2.657226223E-1,-1.791866373E0,1.207492132E0,2.177023394E0
8.994143500E0,-1.128413218E-1,-1.565529426E0,9.728421986E-1,1.846628682E0
9.004094500E0,1.830412388E-1,-1.386675378E0,1.469029610E0,2.028403484E0
9.014046500E0,4.336944169E-1,-1.528791955E0,1.697454890E0,2.325220160E0
9.023997500E0,4.237617517E-1,-1.793056281E0,1.807976914E0,2.581357273E0
9.033948500E0,7.608022785E-1,-1.749089897E0,2.043089947E0,2.795058516E0
9.043899500E0,1.178399311E0,-1.728773746E0,1.797056361E0,2.758023779E0
9.053850500E0,1.440917659E0,-1.813421549E0,1.492866662E0,2.755611054E0
9.063802500E0,1.869281169E0,-1.753888707E0,1.319544372E0,2.882973298E0
9.073753500E0,2.236192782E0,-1.681767980E0,1.190498077E0,3.040754408E0
9.083704500E0,2.541104613E0,-1.650675411E0,1.048454591E0,3.206430881E0
9.093655500E0,2.778128516E0,-1.582733688E0,8.876210770E-1,3.318269904E0
9.103607500E0,3.027066121E0,-1.418499434E0,7.770142686E-1,3.432057855E0
9.113558500E0,3.094176369E0,-1.455197729E0,8.411725500E-1,3.521235450E0
9.123509500E0,3.071493266E0,-1.525963072E0,9.489270866E-1,3.558524525E0
9.133460500E0,3.061669359E0,-1.655134497E0,1.008294744E0,3.623526978E0
9.143412500E0,3.042145506E0,-1.837858817E0,1.115494965E0,3.725144739E0
9.153363500E0,3.089772831E0,-1.950055776E0,1.277208192E0,3.870487623E0
9.163314500E0,3.181171244E0,-2.075351374E0,1.262135240E0,4.002489122E0
9.173265500E0,3.266644088E0,-2.236697981E0,1.223047188E0,4.143624727E0
9.183217375E0,3.323649763E0,-2.419307988E0,1.078174818E0,4.249959979E0
9.193168375E0,3.321763451E0,-2.678468280E0,8.744385293E-1,4.355794703E0
9.203119375E0,3.301684113E0,-2.972800452E0,6.415725812E-1,4.488905867E0
9.213070375E0,3.267879605E0,-3.273661039E0,4.119506684E-1,4.643877374E0
9.223022375E0,3.292371252E0,-3.580642492E0,2.027697444E-1,4.868451981E0
9.232973375E0,3.366228603E0,-3.792911915E0,8.862127751E-2,5.072034063E0
9.242924375E0,3.411816419E0,-4.021151839E0,2.549386024E-4,5.273533299E0
9.252875375E0,3.429759770E0,-4.247585265E0,-5.837713927E-2,5.459728982E0
9.262827375E0,3.473203413E0,-4.339551150E0,-8.037261039E-2,5.558894304E0
9.272778375E0,3.451127250E0,-4.450041306E0,-1.220568261E-1,5.632765288E0
9.282729375E0,3.253931072E0,-4.687594675E0,-3.262044668E-1,5.715594511E0
9.292680375E0,2.931802699E0,-5.088987318E0,-4.691124639E-1,5.891801549E0
9.302632375E0,2.624971812E0,-5.459951636E0,-5.509419081E-1,6.083180572E0
9.312583375E0,2.600040454E0,-5.412348284E0,-5.489611638E-1,6.029517615E0
9.322534375E0,2.373873076E0,-5.553863182E0,-3.304375586E-1,6.048955166E0
9.332485375E0,2.348161114E0,-5.411703921E0,-2.150439271E-1,5.903104593E0
9.342436375E0,2.733908948E0,-4.776267115E0,8.840990067E-2,5.504071402E0
9.352388375E0,3.230243416E0,-3.957235048E0,5.043565562E-1,5.133084578E0
9.362339375E0,3.646732986E0,-3.152529243E0,7.987433991E-1,4.886214600E0
9.372290375E0,3.585527841E0,-3.015533365E0,7.463178483E-1,4.744095457E0
9.382241375E0,4.215476450E0,-1.676698444E0,1.213033246E0,4.696063141E0
9.392193375E0,4.043351963E0,-1.308972314E0,1.115181262E0,4.393828952E0
9.402144375E0,3.494624687E0,-1.360268767E0,7.731445813E-1,3.828901327E0
9.412095375E0,2.906018817E0,-1.505272699E0,2.934410557E-1,3.285863496E0
9.422046375E0,2.502899491E0,-1.471105664E0,-1.803409946E-1,2.908810858E0
9.431998375E0,2.141547410E0,-1.440225933E0,-5.927442375E-1,2.647984475E0
9.441949375E0,1.826985335E0,-1.470989304E0,-9.255054796E-1,2.521556134E0
9.451900375E0,1.557210007E0,-1.572037377E0,-1.187801341E0,2.511389366E0
9.461851375E0,1.239931315E0,-1.692218708E0,-1.350960293E0,2.495220939E0
9.471803375E0,8.795206368E-1,-1.784825156E0,-1.456095569E0,2.465638192E0
9.481754375E0,4.934137845E-1,-1.925826668E0,-1.470722379E0,2.472911206E0
9.491705375E0,-4.876285493E-2,-2.158514276E0,-1.360900851E0,2.552178055E0
9.501656375E0,-5.724049902E-1,-2.341432723E0,-1.232768037E0,2.707336644E0
9.511608375E0,-9.390482157E-1,-2.412476394E0,-1.052102084E0,2.794418132E0
9.521559375E0,-1.074386700E0,-2.315140718E0,-9.661646783E-1,2.729039668E0
9.531510375E0,-1.434385149E0,-2.344332942E0,-5.928097263E-1,2.811544251E0
9.541461375E0,-1.717336008E0,-2.361042531E0,-1.841495785E-1,2.925350554E0
9.551412375E0,-1.805106808E0,-2.107053516E0,1.136920917E-1,2.776870721E0
9.561364375E0,-1.779206566E0,-1.711422134E0,2.782625610E-1,2.484345342E0
9.571315375E0,-1.691373786E0,-1.234717353E0,5.161752409E-1,2.156782118E0
9.581266375E0,-1.657709611E0,-7.750431722E-1,6.788956511E-1,1.951817711E0
9.591217375E0,-1.706511642E0,-3.984357065E-1,6.007359195E-1,1.852516300E0
9.601169375E0,-1.802265646E0,-9.996399879E-3,5.150160304E-1,1.874434021E0
9.611120375E0,-1.931100857E0,4.254258692E-1,3.829180732E-1,2.014140993E0
9.621071375E0,-2.126753955E0,7.609098673E-1,-3.522567362E-2,2.259050035E0
9.631022375E0,-2.274341479E0,1.120439370E0,-3.851879624E-1,2.564446005E0
9.640974375E0,-2.317492176E0,1.446415796E0,-5.022875190E-1,2.777621535E0
9.650925375E0,-2.350307043E0,1.716547219E0,-5.648582813E-1,2.964716247E0
9.660876375E0,-2.438495334E0,1.936319497E0,-7.031966794E-1,3.192190197E0
9.670827375E0,-2.538075755E0,2.221512762E0,-8.352279782E-1,3.474845791E0
9.680779375E0,-2.704195152E0,2.366637731E0,-9.504336217E-1,3.717118459E0
9.690730375E0,-2.909024870E0,2.477116193E0,-1.115272040E0,3.980246481E0
9.700681375E0,-3.163291628E0,2.571125972E0,-1.261469973E0,4.267131259E0
9.710632375E0,-3.356896154E0,2.752948651E0,-1.195231690E0,4.502894276E0
9.720584375E0,-3.544760469E0,2.900511324E0,-1.035008626E0,4.695693301E0
9.730535375E0,-3.770973162E0,2.948019367E0,-8.270722818E-1,4.857479319E0
9.740486375E0,-3.910898495E0,2.984835775E0,-6.530952506E-1,4.962953259E0
9.750437375E0,-4.038986431E0,3.014924378E0,-4.883419096E-1,5.063759297E0
9.760389375E0,-4.067809696E0,3.053217208E0,-3.258113877E-1,5.096603193E0
9.770340375E0,-4.063942932E0,2.996116809E0,-2.654176900E-1,5.055966242E0
9.780291375E0,-4.026164949E0,2.902618661E0,-2.135578573E-1,4.967978084E0
9.790242375E0,-4.000370542E0,2.759427951E0,-1.829269257E-1,4.863215947E0
9.800193375E0,-4.002315326E0,2.481689885E0,-1.614641359E-1,4.712046617E0
9.810145375E0,-4.047519566E0,2.179689383E0,-1.262299839E-1,4.598847078E0
9.820096375E0,-4.110057291E0,1.843389114E0,-1.502023986E-1,4.507018429E0
9.830047375E0,-4.140367211E0,1.549402805E0,-7.595883965E-2,4.421431831E0
9.839998375E0,-4.121288038E0,1.316252682E0,2.117364496E-2,4.326428613E0
9.849950375E0,-3.983020391E0,1.196735594E0,2.009641242E-1,4.163774021E0
9.859901375E0,-3.817115003E0,1.139020652E0,3.714066598E-1,4.000709674E0
9.869852375E0,-3.657272007E0,1.107163267E0,4.539380622E-1,3.848052599E0
9.879803375E0,-3.544536520E0,1.027790823E0,4.761606976E-1,3.721131834E0
9.889755375E0,-3.572367513E0,8.747534019E-1,4.692519200E-1,3.707721743E0
9.899706375E0,-3.751776169E0,5.773394555E-1,3.863737777E-1,3.815551069E0
9.909657375E0,-4.031344705E0,1.595021027E-1,1.575953257E-1,4.037575676E0
9.919608375E0,-4.631918364E0,-5.595919865E-1,-1.360480437E-1,4.667581815E0
9.929560375E0,-4.594033670E0,-5.820412016E-1,-1.111485529E-1,4.632091463E0
9.939511375E0,-4.757539653E0,-8.293918723E-1,-2.054685268E-1,4.833662353E0
9.949462375E0,-4.725320618E0,-7.971626043E-1,-6.672754794E-2,4.792554196E0
9.959413375E0,-4.562809830E0,-6.378704166E-1,1.405869448E-1,4.609324995E0
9.969364375E0,-4.307415145E0,-3.292660689E-1,3.790475088E-1,4.336579111E0
9.979316375E0,-3.974326751E0,2.013517946E-1,7.525018635E-1,4.049947497E0
9.989267375E0,-3.925753346E0,1.789060879E-1,7.572632512E-1,4.002123731E0
9.999218375E0,-3.056190810E0,1.565340561E0,1.512115403E0,3.751944340E0
1.000916938E1,-2.773596924E0,2.117253399E0,1.690581196E0,3.877327254E0
1.001912138E1,-2.705562231E0,2.099814663E0,1.649120344E0,3.801169098E0
1.002907238E1,-2.740088870E0,2.047038864E0,2.233326477E-1,3.427584076E0
1.003902338E1,-2.641619712E0,2.019024269E0,1.633203346E-1,3.328856746E0
1.004897438E1,-2.658093072E0,1.631231080E0,1.663757971E-1,3.123148175E0
1.005892638E1,-2.757590171E0,8.297789580E-1,-4.970416895E-1,2.922308524E0
1.006887737E1,-2.631739379E0,2.227099192E-1,-3.485513556E-1,2.664045780E0
1.007882838E1,-2.373088380E0,-3.326340652E-1,-1.109839538E-1,2.398856252E0
1.008877937E1,-2.207787301E0,-4.314753985E-1,-9.686877519E-2,2.251639257E0
1.009873138E1,-1.509002638E0,-2.089924098E0,-1.989137980E-1,2.585428087E0
1.010868238E1,-2.253260804E0,-2.849214871E0,-8.995321476E-1,3.742241002E0
1.011863338E1,-1.566872531E0,-3.177531352E0,2.098311344E-1,3.549059612E0
1.012858438E1,-9.591117668E-1,-3.314055067E0,9.032688108E-1,3.566335782E0
1.013853638E1,-8.108556139E-1,-3.454721534E0,9.920783687E-1,3.684671925E0
1.014848738E1,-1.169423835E0,-3.197137651E0,2.293176237E0,4.104619169E0
1.015843837E1,-1.062293488E0,-3.157504054E0,2.818117332E0,4.363494540E0
1.016838938E1,-7.260458440E-1,-2.916929137E0,3.261577183E0,4.435482373E0
1.017834037E1,-2.780742806E-1,-2.442389579E0,3.170428447E0,4.011758804E0
1.018829225E1,-1.462564051E-1,-2.552099717E0,3.152668699E0,4.058808178E0
1.019824325E1,3.946548969E-1,-1.933222227E0,2.565836289E0,3.236760190E0
1.020819425E1,6.377534723E-1,-1.893689786E0,2.062990068E0,2.872058237E0
1.021814525E1,7.784509295E-1,-1.980144963E0,1.938542316E0,2.878351305E0
1.022809725E1,1.256214057E0,-1.677762637E0,1.170940895E0,2.400846476E0
1.023804825E1,1.390188970E0,-1.762131527E0,1.025161622E0,2.467526949E0
1.024799925E1,1.930766396E0,-1.397701473E0,6.598936620E-1,2.473234305E0
1.025795025E1,2.228380902E0,-1.308791050E0,5.840394875E-1,2.649474963E0
1.026790225E1,2.344950993E0,-1.400864232E0,4.570379636E-1,2.769494440E0
1.027785325E1,2.913613181E0,-1.107352717E0,3.699325767E-1,3.138824926E0
1.028780425E1,3.016045289E0,-1.201503414E0,2.671022728E-1,3.257527170E0
1.029775525E1,3.303582119E0,-1.159574200E0,3.138023762E-1,3.515215366E0
1.030770625E1,3.391466355E0,-1.253203325E0,2.414584315E-1,3.623653513E0
1.031765825E1,3.394947202E0,-1.356688517E0,2.854012804E-1,3.667113869E0
1.032760925E1,3.455132593E0,-1.448175223E0,2.610197067E-1,3.755433929E0
1.033756025E1,3.524771762E0,-1.543174351E0,2.478646410E-1,3.855754133E0
1.034751125E1,3.627016760E0,-1.526540776E0,4.080749877E-1,3.956273817E0
1.035746325E1,3.688946959E0,-1.623753660E0,4.235780029E-1,4.052693418E0
1.036741425E1,3.951195166E0,-1.687134554E0,6.425553520E-1,4.344104468E0
1.037736525E1,4.002427885E0,-1.777414979E0,6.731013528E-1,4.430767249E0
1.038731625E1,4.073047632E0,-1.902251279E0,6.495977385E-1,4.542053959E0
1.039726825E1,4.163647900E0,-2.054207550E0,6.110341819E-1,4.682851190E0
1.040721925E1,4.111441619E0,-2.302722402E0,5.439011295E-1,4.743660094E0
1.041717025E1,4.003334788E0,-2.577097149E0,4.237981506E-1,4.779929290E0
1.042712125E1,3.846230628E0,-2.834195420E0,3.397140200E-1,4.789734789E0
1.043707325E1,3.679678538E0,-3.034622478E0,3.036764605E-1,4.779245455E0
1.044702425E1,3.548256519E0,-3.160238796E0,3.097916248E-1,4.761638838E0
1.045697525E1,3.447966245E0,-3.198913158E0,3.367057738E-1,4.715388361E0
1.046692625E1,3.357171850E0,-3.198079345E0,3.002191481E-1,4.646336822E0
1.047687725E1,3.248124787E0,-3.199612777E0,2.806964645E-1,4.568000335E0
1.048682925E1,3.087774253E0,-3.237277032E0,1.660879679E-1,4.476817802E0
1.049678025E1,2.846294771E0,-3.367525515E0,-7.552526861E-2,4.409912254E0
1.050673125E1,2.429783567E0,-3.755563703E0,-4.666113174E-1,4.497313979E0
1.051668225E1,1.977472200E0,-4.355620176E0,-8.695417786E-1,4.861885059E0
1.052663425E1,1.693072402E0,-4.814278110E0,-1.091902765E0,5.218813996E0
1.053658525E1,1.611202612E0,-4.979294722E0,-1.042595973E0,5.336324217E0
1.054653625E1,1.713198518E0,-4.975272422E0,-9.010503772E-1,5.338565034E0
1.055648725E1,1.984733273E0,-4.742531605E0,-6.715670434E-1,5.184763686E0
1.056643925E1,2.167835907E0,-4.499117280E0,-4.637321484E-1,5.015637180E0
1.057639025E1,1.970079566E0,-4.445207121E0,-5.165748981E-1,4.889573547E0
1.058634125E1,1.820184438E0,-4.265103523E0,-6.000415626E-1,4.675920159E0
1.059629225E1,2.018039598E0,-3.638985425E0,-4.847014332E-1,4.189228357E0
1.060624425E1,2.437908858E0,-2.822305400E0,-2.660576677E-1,3.738929533E0
1.061619525E1,2.895435941E0,-1.984650827E0,4.182133287E-2,3.510575055E0
1.062614625E1,3.155327720E0,-1.265564924E0,2.736685498E-1,3.410665928E0
1.063609725E1,3.079061902E0,-7.264329296E-1,3.703825200E-1,3.185201753E0
1.064604825E1,2.703944891E0,-5.672255266E-1,2.446090575E-1,2.773607103E0
1.065600025E1,2.152629054E0,-5.693077201E-1,-3.380158424E-2,2.226895972E0
1.066595125E1,1.533634619E0,-6.103136587E-1,-3.931656110E-1,1.696790235E0
1.067590225E1,1.096076946E0,-5.398178726E-1,-6.433659223E-1,1.380835876E0
1.068585325E1,9.509806287E-1,-2.012833822E-1,-7.031367454E-1,1.199700145E0
1.069580525E1,7.452305585E-1,3.028272986E-2,-9.356547841E-1,1.196551505E0
1.070575625E1,4.430312508E-1,1.357372642E-1,-1.271207779E0,1.353022732E0
1.071570725E1,1.577526158E-1,1.830330527E-1,-1.528686558E0,1.547665849E0
1.072565825E1,-1.022765726E-1,1.455524004E-1,-1.580362935E0,1.590343675E0
1.073561025E1,-4.228010541E-1,1.437543815E-1,-1.467263166E0,1.533716810E0
1.074556125E1,-8.148837608E-1,3.221640408E-2,-1.319011691E0,1.550762806E0
1.075551225E1,-1.258004474E0,-2.937746394E-1,-1.212077811E0,1.771443314E0
1.076546325E1,-1.603210638E0,-5.260465103E-1,-9.522398266E-1,1.937464830E0
1.077541525E1,-1.569107337E0,-6.799253458E-1,-1.632823277E-1,1.717864206E0
1.078536625E1,-1.525233339E0,-7.452340668E-1,8.250801355E-2,1.699564099E0
1.079531725E1,-1.560628874E0,-7.975684011E-1,2.975645122E-1,1.777701459E0
1.080526825E1,-1.659153873E0,-7.747122198E-1,4.184615430E-1,1.878318573E0
1.081521925E1,-1.638756446E0,-7.722148740E-1,5.478022456E-1,1.892597633E0
1.082517125E1,-1.613056764E0,-5.391922206E-1,7.103165415E-1,1.843157607E0
1.083512225E1,-1.545709119E0,-2.545655501E-1,8.706939724E-1,1.792241137E0
1.084507325E1,-1.641280982E0,-2.180444258E-1,9.230993503E-1,1.895642119E0
1.085502425E1,-1.589447169E0,1.061076683E-1,1.094220748E0,1.932594159E0
1.086497625E1,-1.580984494E0,6.592378968E-1,1.389664182E0,2.205736411E0
1.087492725E1,-1.751847444E0,8.337416160E-1,1.431437568E0,2.411038793E0
1.088487825E1,-1.850366011E0,8.834008491E-1,1.437862196E0,2.504336066E0
1.089482925E1,-2.186246158E0,1.107367335E0,1.447466833E0,2.846242244E0
1.090478125E1,-2.275945662E0,1.154213473E0,1.442191182E0,2.931220361E0
1.091473225E1,-2.521450659E0,1.379491489E0,1.221909319E0,3.123103037E0
1.092468325E1,-2.595277312E0,1.421776798E0,1.202492763E0,3.194198246E0
1.093463425E1,-2.589004419E0,1.590591177E0,8.604329860E-1,3.158048305E0
1.094458525E1,-2.490149637E0,1.732745760E0,8.514154100E-1,3.150898488E0
1.095453725E1,-2.550869755E0,1.769024225E0,8.255876738E-1,3.212160990E0
1.096448825E1,-2.416854204E0,2.002890632E0,6.830047819E-1,3.212359049E0
1.097443925E1,-2.477052166E0,2.034020038E0,6.676476547E-1,3.273954542E0
1.098439025E1,-2.425560123E0,2.217910877E0,7.610610178E-1,3.373675213E0
1.099434225E1,-2.573170744E0,2.264767540E0,8.096768153E-1,3.522208999E0
1.100429325E1,-2.628105335E0,2.286341427E0,8.114455980E-1,3.576693827E0
1.101424425E1,-3.001759664E0,2.152315058E0,6.913815030E-1,3.757795840E0
1.102419525E1,-3.045514086E0,2.167420755E0,6.971702465E-1,3.802488019E0
1.103414725E1,-3.250085066E0,1.943364807E0,6.968275997E-1,3.850362114E0
1.104409825E1,-3.322649597E0,1.813828515E0,7.298959431E-1,3.855220138E0
1.105404925E1,-3.354909855E0,1.821738043E0,7.421566772E-1,3.889080375E0
1.106400025E1,-3.681388556E0,1.364328489E0,8.520086101E-1,4.017453497E0
1.107395225E1,-3.708967533E0,1.369189864E0,8.672917700E-1,4.047630920E0
1.108390325E1,-4.108923808E0,1.010719292E0,9.929893649E-1,4.346358962E0
1.109385425E1,-4.307921222E0,9.066692591E-1,9.850409523E-1,4.511157288E0
1.110380525E1,-4.323441778E0,9.096139169E-1,9.925856146E-1,4.528219572E0
1.111375625E1,-4.654723383E0,6.579977024E-1,9.510838321E-1,4.796245532E0
1.112370825E1,-4.656435155E0,6.593525022E-1,9.489823428E-1,4.797676684E0
1.113365925E1,-5.109579458E0,2.850067395E-1,5.361946455E-1,5.145535519E0
1.114361025E1,-5.373511662E0,-3.203104734E-2,2.450325420E-1,5.379190880E0
1.115356125E1,-5.543558049E0,-3.415165704E-1,8.660398811E-2,5.554742988E0
1.116351325E1,-5.639552958E0,-5.745123267E-1,2.837975353E-2,5.668811815E0
1.117346425E1,-5.591128072E0,-5.926147217E-1,2.850137562E-2,5.622518800E0
1.118341525E1,-5.291205086E0,-4.878144908E-1,1.745385101E-1,5.316509938E0
1.119336600E1,-5.016475997E0,-3.260916156E-1,4.813737828E-1,5.050058206E0
1.120331700E1,-4.662393175E0,-9.247605443E-2,9.175591135E-1,4.752723079E0
1.121326900E1,-4.129540506E0,3.725389731E-1,1.435890223E0,4.387900501E0
1.122322000E1,-4.040652595E0,3.444471949E-1,1.410086460E0,4.293467258E0
1.123317100E1,-3.403557520E0,9.086099499E-1,1.884847627E0,3.995300540E0
1.124312200E1,-2.805348767E0,1.427027598E0,2.079227494E0,3.772211081E0
1.125307400E1,-2.407541636E0,1.564000379E0,1.485024084E0,3.232282544E0
1.126302500E1,-1.915388511E0,1.172747392E0,1.165184311E0,2.530158903E0
1.127297600E1,-1.678361977E0,1.148274456E0,1.252574457E0,2.388383537E0
1.128292700E1,-1.959771217E0,4.097705340E-1,4.004114807E-1,2.041799321E0
1.129287900E1,-1.922079480E0,-2.315368760E-1,-2.838793963E-2,1.936183030E0
1.130283000E1,-1.622125795E0,-5.242631096E-1,-1.856195685E-1,1.714817346E0
1.131278100E1,-1.166653716E0,-1.065669086E0,-2.873798320E-1,1.606025735E0
1.132273200E1,-7.848027599E-1,-1.921221986E0,-2.757538131E-1,2.093573370E0
1.133268400E1,-2.026054376E-1,-2.570627205E0,2.281489992E-1,2.588672470E0
1.134263500E1,2.018924866E0,-2.937655177E0,1.548872463E0,3.886499898E0
1.135258600E1,1.297371438E0,-4.232187207E0,1.953177604E-1,4.430883685E0
1.136253700E1,-3.829452628E-1,-4.417557392E0,3.683304396E-1,4.449396330E0
1.137248800E1,3.205057704E-1,-3.025423638E0,1.281416141E0,3.301202730E0
1.138244000E1,-3.696714985E-1,-2.769064747E0,1.500299934E0,3.171005595E0
1.139239100E1,-8.554143208E-1,-2.632083195E0,1.179409417E0,3.008421876E0
1.140234200E1,-1.105462897E0,-2.177293194E0,8.930958250E-1,2.600052696E0
1.141229300E1,-1.409822751E0,-1.570353963E0,9.462996402E-1,2.312811010E0
1.142224500E1,-1.516604603E0,-1.483898787E0,1.137259471E0,2.407364583E0
1.143219600E1,-1.641785889E0,-1.522797974E0,1.474954886E0,2.681392640E0
1.144214700E1,-1.622967795E0,-1.638632485E0,1.760021267E0,2.901174890E0
1.145209800E1,-1.406882771E0,-1.827642562E0,2.023641230E0,3.068341619E0
1.146205000E1,-9.762096101E-1,-1.982618920E0,2.149653113E0,3.082980942E0
1.147200100E1,-4.813264203E-1,-2.232157618E0,2.222912001E0,3.186775882E0
1.148195200E1,4.588602483E-2,-2.462607497E0,2.318545552E0,3.382631326E0
1.149190300E1,6.545724034E-1,-2.598235418E0,2.346670367E0,3.561762784E0
1.150185400E1,1.208700752E0,-2.646853262E0,2.323526795E0,3.723649616E0
1.151180600E1,1.659955527E0,-2.652439107E0,2.237994017E0,3.847012190E0
1.152175700E1,1.942939714E0,-2.722850693E0,2.219689893E0,4.014468066E0
1.153170800E1,2.190810202E0,-2.740865380E0,2.134858488E0,4.107263461E0
1.154165900E1,2.494038620E0,-2.664881982E0,2.042106153E0,4.182346489E0
1.155161100E1,2.765927716E0,-2.555771769E0,1.941328222E0,4.236871573E0
1.156156200E1,2.954101056E0,-2.497415387E0,1.789305877E0,4.262090119E0
1.157151300E1,3.073950850E0,-2.515511935E0,1.692577727E0,4.317614328E0
1.158146400E1,3.142663820E0,-2.521096903E0,1.696500917E0,4.371542158E0
1.159141500E1,3.274117414E0,-2.539235550E0,1.667503405E0,4.466332906E0
1.160136700E1,3.377114949E0,-2.581518521E0,1.645612014E0,4.558199442E0
1.161131800E1,3.372830109E0,-2.648430549E0,1.569332162E0,4.566505311E0
1.162126900E1,3.442036584E0,-2.750351903E0,1.536141905E0,4.666024366E0
1.163122000E1,3.630830898E0,-2.948693258E0,1.225858529E0,4.835333916E0
1.164117200E1,3.691460677E0,-3.040927823E0,1.192139390E0,4.929028330E0
1.165112300E1,3.860090284E0,-3.285535857E0,8.426732379E-1,5.138593295E0
1.166107400E1,3.934974990E0,-3.514521008E0,6.198373112E-1,5.312257936E0
1.167102500E1,3.972508267E0,-3.584739636E0,6.090705407E-1,5.385364158E0
1.168097700E1,4.065913444E0,-3.670628510E0,5.205939817E-1,5.502379838E0
1.169092800E1,4.084390646E0,-3.718650523E0,5.304570651E-1,5.549053374E0
1.170087900E1,3.962060462E0,-3.674633268E0,5.114033282E-1,5.427926503E0
1.171083000E1,3.742101073E0,-3.789867563E0,4.548411646E-1,5.345399617E0
1.172078100E1,3.739014328E0,-3.801860494E0,4.775055572E-1,5.353726078E0
1.173073300E1,3.006122564E0,-4.415781008E0,8.831546813E-2,5.342629914E0
1.174068400E1,2.996972841E0,-4.415862284E0,1.124986750E-1,5.338009168E0
1.175063500E1,2.452664307E0,-5.162648202E0,-2.076238105E-1,5.719406115E0
1.176058600E1,2.577573697E0,-5.156223282E0,-1.008992609E-1,5.765475293E0
1.177053800E1,2.561143021E0,-5.136726326E0,-8.141984671E-2,5.740386756E0
1.178048900E1,3.031045151E0,-4.717228948E0,1.626517054E-1,5.609450886E0
1.179044000E1,3.008319363E0,-4.662513336E0,1.559124970E-1,5.550975113E0
1.180039100E1,3.449444422E0,-4.076593091E0,2.810931981E-1,5.347550040E0
1.181034300E1,3.579546139E0,-3.685833609E0,3.547438493E-1,5.150180886E0
1.182029400E1,3.542232133E0,-3.567414629E0,2.978884479E-1,5.036128785E0
1.183024500E1,3.606211782E0,-2.782415402E0,5.579553509E-1,4.588890177E0
1.184019600E1,3.553818975E0,-2.631835566E0,4.810466310E-1,4.448324810E0
1.185014700E1,3.484473921E0,-1.824939686E0,5.300778732E-1,3.968998100E0
1.186009900E1,3.335664037E0,-1.371069452E0,3.565339744E-1,3.624031248E0
1.187005000E1,3.089022049E0,-1.071508700E0,2.124761224E-2,3.269654351E0
1.188000100E1,2.711066215E0,-9.695794523E-1,-4.296475589E-1,2.911109988E0
1.188995200E1,2.621917811E0,-7.729048455E-1,-5.655728111E-1,2.791363021E0
1.189990400E1,1.816263295E0,-1.026372873E0,-1.368031970E0,2.494747503E0
1.190985500E1,1.478872520E0,-1.061429855E0,-1.513411731E0,2.367300643E0
1.191980600E1,1.125860324E0,-1.158172622E0,-1.775933587E0,2.400596884E0
1.192975700E1,7.959329349E-1,-1.305725940E0,-2.054997217E0,2.561531383E0
1.193970900E1,6.927284092E-1,-1.163003592E0,-2.119566557E0,2.514957732E0
1.194966000E1,2.446363932E-1,-1.449710702E0,-2.228342603E0,2.669647699E0
1.195961100E1,-4.103517473E-2,-1.663839247E0,-2.381207238E0,2.905200998E0
1.196956200E1,-3.459347266E-1,-1.543891804E0,-2.374947209E0,2.853707586E0
1.197951300E1,-5.569315034E-1,-1.745210270E0,-2.086899333E0,2.776883219E0
1.198946500E1,-6.476048613E-1,-1.675005090E0,-2.011595089E0,2.696580967E0
1.199941600E1,-9.197407097E-1,-1.832273557E0,-1.377664673E0,2.470042370E0
1.200936700E1,-9.483809566E-1,-1.751180862E0,-1.133467844E0,2.291464641E0
1.201931800E1,-1.040747668E0,-1.699318398E0,-1.023843952E0,2.240333717E0
1.202927000E1,-8.056790739E-1,-1.478132263E0,-4.225145406E-1,1.735659037E0
1.203922100E1,-9.052092093E-1,-1.426238809E0,-3.135820824E-1,1.718107847E0
1.204917200E1,-8.019655073E-1,-1.123105701E0,-8.780792981E-2,1.382832355E0
1.205912300E1,-9.411631536E-1,-8.607078052E-1,1.278733438E-1,1.281779076E0
1.206907400E1,-9.296850693E-1,-5.702374274E-1,2.624215767E-1,1.121762067E0
1.207902600E1,-1.096903158E0,-3.135236102E-1,4.751432821E-1,1.235821480E0
1.208897700E1,-1.858736885E0,4.541438842E-1,-1.114429602E-1,1.916655684E0
1.209892800E1,-2.461971905E0,8.542489707E-1,-1.123179960E0,2.837706853E0
1.210887900E1,-2.203497491E0,9.722545534E-1,-1.119604096E0,2.655973162E0
1.211883100E1,-2.006277339E0,1.313416783E0,-9.950303355E-1,2.596208346E0
1.212878200E1,-1.785173650E0,1.448343623E0,-7.534374180E-1,2.419134587E0
1.213873300E1,-1.575025889E0,1.446622787E0,-6.157293499E-1,2.225431794E0
1.214868400E1,-1.458983801E0,1.439903167E0,-3.716383557E-1,2.083283449E0
1.215863600E1,-1.264904773E0,1.468357472E0,2.446220675E-1,1.953432289E0
1.216858700E1,-1.224297615E0,1.624244826E0,6.103573667E-1,2.123584710E0
1.217853800E1,-1.466351877E0,1.809748912E0,3.222318685E-1,2.351427722E0
1.218848900E1,-1.648373362E0,1.840929775E0,-1.169361269E-1,2.473829265E0
1.219844067E1,-1.847169923E0,2.007480111E0,-2.290317826E-1,2.737602725E0
1.220839267E1,-2.014572199E0,2.098638203E0,-1.826094219E-1,2.914812113E0
1.221834367E1,-2.162853787E0,2.090371410E0,-2.047132127E-1,3.014879207E0
1.222829467E1,-2.366812855E0,1.981474620E0,-2.252509730E-1,3.094960866E0
1.223824567E1,-2.636978777E0,1.722885016E0,-1.874814682E-1,3.155493487E0
1.224819767E1,-2.895471025E0,1.455981256E0,1.710676029E-2,3.240976167E0
1.225814867E1,-3.099880621E0,1.135961389E0,1.745911351E-1,3.306077767E0
1.226809967E1,-3.237881927E0,8.793364495E-1,2.292596778E-1,3.362985573E0
1.227805067E1,-3.287119283E0,6.808749336E-1,3.218211016E-1,3.372285972E0
1.228800167E1,-3.316812614E0,5.055748236E-1,3.770226181E-1,3.376240197E0
1.229795367E1,-3.385959739E0,3.587781358E-1,3.443881381E-1,3.422286998E0
1.230790467E1,-3.470064043E0,2.175585222E-1,3.333567810E-1,3.492821627E0
1.231785567E1,-3.450492827E0,1.269073838E-1,3.130631420E-1,3.466989294E0
1.232780667E1,-3.361090946E0,1.459669679E-1,3.385245502E-1,3.381247932E0
1.233775867E1,-3.231384793E0,3.054275554E-1,3.386148897E-1,3.263402169E0
1.234770967E1,-3.179885149E0,5.318241441E-1,7.451106906E-2,3.224912151E0
1.235766067E1,-3.068703851E0,7.004876643E-1,-2.297221926E-1,3.156009915E0
1.236761167E1,-2.971299471E0,8.477445281E-1,-4.130078450E-1,3.117349325E0
1.237756267E1,-2.760891801E0,1.011515098E0,-5.171701446E-1,2.985490126E0
1.238751467E1,-2.494150887E0,1.179289257E0,-5.295229724E-1,2.809253704E0
1.239746567E1,-2.236832467E0,1.336603916E0,-4.811615288E-1,2.649801112E0
1.240741667E1,-2.008027995E0,1.466548344E0,-3.532469621E-1,2.511518244E0
1.241736767E1,-1.831263158E0,1.530451394E0,-2.498562026E-1,2.399632127E0
1.242731967E1,-1.714360945E0,1.541579230E0,-4.582316726E-2,2.305992137E0
1.243727067E1,-1.656104550E0,1.547605956E0,2.445599408E-1,2.279819300E0
1.244722167E1,-1.908545222E0,1.381079593E0,5.143465242E-1,2.411322885E0
1.245717267E1,-1.822424507E0,1.320306557E0,5.253404590E-1,2.310935543E0
1.246712367E1,-2.346549622E0,7.532669717E-1,1.161866016E0,2.724635553E0
1.247707567E1,-2.242716520E0,6.736454362E-1,1.183436395E0,2.623756327E0
1.248702667E1,-2.481225616E0,-6.959414542E-2,1.350398960E0,2.825756758E0
1.249697767E1,-2.303743910E0,-3.990970266E-1,1.319701078E0,2.684795220E0
1.250692867E1,-2.168995995E0,-5.117231709E-1,1.343076638E0,2.601972153E0
1.251688067E1,-1.743656080E0,-7.667676079E-1,1.275745657E0,2.292552305E0
1.252683167E1,-1.467688551E0,-8.302672005E-1,1.087390323E0,2.006457331E0
1.253678267E1,-1.394818211E0,-7.200436771E-1,1.050216064E0,1.888632976E0
1.254673367E1,-1.361038846E0,-5.978234214E-1,1.138568955E0,1.872473991E0
1.255668567E1,-1.235010298E0,-7.239045936E-1,1.156633050E0,1.840404388E0
1.256663667E1,9.061079264E-2,-4.617803478E-1,1.916325527E-1,5.081086898E-1
1.257658767E1,1.165672846E0,-6.259409273E-1,1.236847494E0,1.811183853E0
1.258653867E1,-9.280765003E-1,-1.377834388E0,1.926762807E-1,1.672386839E0
1.259648967E1,-2.026341475E0,-1.723863255E0,7.231365618E-1,2.756935034E0
1.260644167E1,-1.929654840E0,-1.830326434E0,7.212622368E-1,2.755699888E0
1.261639267E1,-2.824708021E0,-1.621551014E0,1.984951959E0,3.814241389E0
1.262634367E1,-2.669905910E0,-1.802345753E0,2.038125368E0,3.811929013E0
1.263629467E1,-2.637793586E0,-2.158917149E0,1.945500210E0,3.924773793E0
1.264624667E1,-2.241863412E0,-2.395783762E0,1.844687488E0,3.764120524E0
1.265619767E1,-2.112665089E0,-2.547827157E0,1.793365599E0,3.764430524E0
1.266614867E1,-1.734284747E0,-2.666375361E0,1.687393878E0,3.600638728E0
1.267609967E1,-1.377299368E0,-2.866683428E0,1.517299106E0,3.523779789E0
1.268605067E1,-1.503715585E0,-3.021394322E0,1.771954265E0,3.811798280E0
1.269600267E1,-1.490559935E0,-3.088034454E0,1.713368964E0,3.833191740E0
1.270595367E1,-1.384827073E0,-3.246896287E0,1.670167104E0,3.905065899E0
1.271590467E1,-2.055992121E0,-3.270690946E0,1.466094600E0,4.132064404E0
1.272585567E1,-1.592883285E0,-3.570483540E0,1.015223987E0,4.039345196E0
1.273580767E1,-1.019861414E0,-3.180120499E0,2.520802495E0,4.184223813E0
1.274575867E1,-1.104489920E0,-3.355822020E0,2.176454118E0,4.149505024E0
1.275570967E1,-1.002449575E0,-3.544862503E0,2.105603406E0,4.243173461E0
1.276566067E1,-7.053800297E-1,-3.152699981E0,1.500904244E0,3.562273391E0
1.277561167E1,-3.282235104E-1,-3.199178621E0,1.018344061E0,3.373351324E0
1.278556367E1,-5.193181193E-1,-3.197726465E0,6.212878592E-1,3.298657979E0
1.279551467E1,-7.078276742E-1,-3.395066485E0,3.175554116E-1,3.482576330E0
1.280546567E1,-6.234950370E-1,-3.576058567E0,1.419074654E-1,3.632778368E0
1.281541667E1,-9.975168639E-1,-3.595570141E0,1.249164800E-1,3.733466039E0
1.282536867E1,-1.120130053E0,-3.720476900E0,2.329098753E-1,3.892413995E0
1.283531967E1,-9.860645074E-1,-3.641673975E0,2.707190681E-1,3.782512573E0
1.284527067E1,-7.954610646E-1,-3.550134645E0,1.065538108E-1,3.639720870E0
1.285522167E1,-7.451410961E-1,-3.764072571E0,-1.645833331E-1,3.840646462E0
1.286517267E1,-3.639400578E-1,-3.530866899E0,-5.813108844E-1,3.596859154E0
1.287512467E1,-8.069391489E-2,-3.562206514E0,-8.472493420E-1,3.662466136E0
1.288507567E1,-7.658390701E-2,-3.771522508E0,-1.184849520E0,3.953999938E0
1.289502667E1,1.167892449E0,-4.494829516E0,-1.771431524E-1,4.647455739E0
1.290497767E1,1.138239464E0,-4.694311371E0,-5.138847403E-1,4.857594657E0
1.291492967E1,1.954405519E0,-5.051061693E0,3.815431005E-1,5.429410677E0
1.292488067E1,-9.754325151E-1,-3.426455508E0,-3.752335162E-1,3.582299001E0
1.293483167E1,-1.761785957E0,-3.370051804E0,-7.172191796E-1,3.869824579E0
1.294478267E1,-4.183577549E-1,-3.912310597E0,-2.019821244E-1,3.939796213E0
1.295473367E1,-4.857972014E-1,-3.693482060E0,-1.078040040E0,3.878141175E0
1.296468567E1,-1.394631100E-1,-3.117320818E0,-1.412348163E0,3.425181218E0
1.297463667E1,4.487106514E-1,-2.827840374E0,-1.387946563E0,3.181889076E0
1.298458767E1,3.648317581E-1,-2.685925234E0,-1.559213263E0,3.127050140E0
1.299453867E1,-2.483049363E-1,-2.463585444E0,-1.600196398E0,2.948141294E0
1.300449067E1,-1.072688668E0,-2.168612418E0,-1.762064284E0,2.993060530E0
1.301444167E1,-1.344837381E0,-1.950804512E0,-1.918165646E0,3.048538218E0
1.302439267E1,-1.045744114E0,-1.804696480E0,-1.434698560E0,2.531574627E0
1.303434367E1,-6.331376803E-1,-1.628233358E0,-1.920675271E0,2.596343715E0
1.304429467E1,-3.120413411E-1,-1.563535087E0,-2.524074013E0,2.985458321E0
1.305424667E1,3.839340270E-2,-1.534183087E0,-2.919799535E0,3.298548335E0
1.306419767E1,2.174632126E-1,-1.419614790E0,-2.812936406E0,3.158355209E0
1.307414867E1,3.176008737E-1,-1.211938940E0,-2.324009190E0,2.640205489E0
1.308409967E1,3.437461138E-1,-1.104058396E0,-1.889832963E0,2.215530401E0
1.309405167E1,2.759178275E-1,-1.294376933E0,-1.482858567E0,1.987564294E0
1.310400267E1,2.336219931E-1,-1.501167661E0,-1.159377733E0,1.911083544E0
1.311395367E1,4.591146022E-1,-1.441168358E0,-1.351201490E0,2.028176009E0
1.312390467E1,8.941135329E-1,-1.420573734E0,-1.838777415E0,2.489692978E0
1.313385567E1,1.029299405E0,-1.392231987E0,-2.191279734E0,2.792753846E0
1.314380767E1,6.880731484E-1,-1.328232165E0,-2.094504806E0,2.573829001E0
1.315375867E1,2.446779084E-1,-1.080459033E0,-1.843433552E0,2.150699017E0
1.316370967E1,5.388472348E-2,-8.528786758E-1,-1.925542493E0,2.106660745E0
1.317366067E1,1.043149120E-1,-6.321989098E-1,-2.316709526E0,2.403684690E0
1.318361267E1,2.489177245E-1,-3.885588822E-1,-2.746478122E0,2.784973988E0
1.319356375E1,4.953424886E-1,-2.175126216E-1,-2.947241687E0,2.996482852E0
1.320351475E1,8.081808051E-1,-1.375621802E-1,-3.118277423E0,3.224241562E0
1.321346575E1,1.067390214E0,-7.027622312E-2,-3.063579644E0,3.244962381E0
1.322341675E1,1.008139501E0,-3.261734766E-1,-2.840831718E0,3.032005811E0
1.323336875E1,-3.554785520E-2,-1.210173373E0,-2.501185672E0,2.778797043E0
1.324331975E1,2.143235502E-1,-9.123050979E-1,-2.436656384E0,2.610656912E0
1.325327075E1,1.207052422E-1,-3.582144642E-1,-1.607186744E0,1.651041062E0
1.326322175E1,3.910530120E-2,-4.214617494E-1,-1.607568567E0,1.662358544E0
1.327317375E1,-2.967268986E-1,-4.109841236E-1,-6.901632357E-1,8.563177530E-1
1.328312475E1,3.264348471E-1,-3.082061523E-1,-1.409469579E0,1.479241439E0
1.329307575E1,7.346871516E-1,-4.317429087E-1,-1.490828907E0,1.717188976E0
1.330302675E1,8.303426296E-1,-3.713397092E-1,-1.459579048E0,1.719806111E0
1.331297775E1,7.373128438E-1,-3.646273980E-1,-1.418445055E0,1.639685867E0
1.332292975E1,7.299959305E-1,-4.195312911E-1,-1.394575551E0,1.629030856E0
1.333288075E1,8.304481718E-1,-3.718741447E-1,-7.511251366E-1,1.179882840E0
1.334283175E1,7.409439647E-1,-3.307597402E-1,-4.937073147E-1,9.498141277E-1
1.335278275E1,7.447013855E-1,-2.302993128E-1,-3.039990807E-1,8.366799675E-1
1.336273375E1,7.703455192E-1,-1.585454983E-1,-3.722846192E-1,8.701521313E-1
1.337268575E1,8.153740498E-1,-2.183268464E-1,-3.263471389E-1,9.049883469E-1
1.338263675E1,7.685884309E-1,-8.302724630E-2,-6.382586718E-1,1.002494804E0
1.339258775E1,5.983362222E-1,-8.986147195E-2,-7.929467618E-1,9.974196138E-1
1.340253875E1,3.429900688E-1,-5.975445092E-2,-9.805131608E-1,1.040489712E0
1.341249075E1,1.032284993E-1,1.938907474E-2,-1.102007777E0,1.107001897E0
1.342244175E1,1.288296559E-1,-2.425191164E-2,-1.067946576E0,1.075962418E0
1.343239275E1,4.776882827E-3,1.049583980E-1,-1.279616953E0,1.283923140E0
1.344234375E1,-9.170012891E-2,1.560022518E-1,-1.145478317E0,1.159683660E0
1.345229475E1,-1.052855498E-1,1.576777714E-1,-8.648780394E-1,8.854159190E-1
1.346224675E1,-1.867191374E-2,1.052875963E-1,-4.907363445E-1,5.022512101E-1
1.347219775E1,-6.101861894E-3,8.068046629E-2,-4.714188981E-1,4.783119775E-1
1.348214875E1,1.971991020E-1,-7.052005202E-2,3.562182248E-2,2.124369973E-1
1.349209975E1,3.540535855E-1,-1.599397668E-1,1.287515956E-1,4.092818635E-1
1.350205175E1,4.468369111E-1,-2.374984047E-1,3.137440503E-2,5.070040145E-1
1.351200275E1,4.897010949E-1,-2.723396239E-1,-2.443142116E-2,5.608680125E-1
1.352195375E1,5.383013973E-1,-2.968245471E-1,1.029987037E-2,6.148002060E-1
1.353190475E1,1.888934246E-1,-2.857388109E-1,4.071182370E-2,3.449418016E-1
1.354185575E1,-1.643596771E-1,-1.390163827E-1,-7.551620543E-2,2.281279365E-1
1.355180775E1,-1.129047641E-1,-1.662872118E-1,-3.605042338E-2,2.042022419E-1
1.356175875E1,-4.098646742E-1,1.280417436E-1,-6.454723817E-1,7.752537229E-1
1.357170975E1,-3.745369667E-1,1.068707299E-1,-6.160082620E-1,7.288109983E-1
1.358166075E1,-2.043110704E-1,1.282879114E-2,-4.301381403E-1,4.763679367E-1
1.359161275E1,1.492218205E-1,-1.897134966E-1,-4.709253931E-1,5.291777474E-1
1.360156375E1,2.780257487E-1,-1.728553891E-2,-1.844315897E0,1.865234097E0
1.361151475E1,-1.640477282E-1,2.322549140E-1,-2.008496942E0,2.028525072E0
1.362146575E1,-1.624257106E-1,2.520003766E-1,-2.020760892E0,2.042880536E0
1.363141675E1,-3.315812740E-1,-2.816592085E-1,3.797649622E-2,4.367153138E-1
1.364136875E1,-1.856903198E-1,-3.190796345E-1,5.162015533E-1,6.346311935E-1
1.365131975E1,-2.680831432E-1,-2.602221465E-1,1.041276841E0,1.106273744E0
1.366127075E1,-5.249966428E-1,-1.106872076E-1,1.322180005E0,1.426896316E0
1.367122175E1,-5.399508968E-1,-1.256438005E-1,1.325265580E0,1.436545229E0
1.368117375E1,-2.867079869E-1,3.447880876E-1,2.050554210E-1,4.930801363E-1
1.369112475E1,-1.952835542E-1,3.740709436E-1,-2.481991017E-1,4.895585067E-1