"Time (s)","Linear Acceleration x (m/s^2)","Linear Acceleration y (m/s^2)","Linear Acceleration z (m/s^2)","Absolute acceleration (m/s^2)"
2.053291537E-3,-2.779061732E-1,-5.889140189E-1,-2.358111906E-1,6.925738086E-1
1.200429164E-2,-4.871484929E-1,-5.490155429E-1,-4.432809269E-1,8.574553637E-1
2.195629152E-2,-9.073308715E-1,-6.532719827E-1,-1.259275074E0,1.683979604E0
3.190729162E-2,-1.535004914E0,-6.437117851E-1,-1.733643892E0,2.403357254E0
4.185829172E-2,-1.507291743E0,5.914458632E-3,-1.073583877E0,1.850552814E0
5.181029160E-2,-1.684048540E0,-2.118761981E-1,-1.024959016E0,1.982788943E0
6.176129170E-2,-1.722934571E0,-2.564828521E-1,-1.316646785E0,2.183539728E0
7.171329157E-2,-1.493500792E0,-3.336421251E-2,-1.403579094E0,2.049802932E0
8.166429168E-2,-1.230300366E0,8.980738521E-3,-1.053406890E0,1.619686921E0
9.161629155E-2,-9.501707894E-1,3.939269185E-3,-6.989592022E-1,1.179569419E0
1.015672917E-1,-6.614358652E-1,-3.883896053E-2,-4.199072671E-1,7.844284426E-1
1.115192915E-1,-3.365533076E-1,-9.013833761E-2,-6.743242979E-2,3.548805170E-1
1.214702916E-1,6.572562754E-3,-1.420586890E-1,1.616439378E-1,2.152966148E-1
1.314222915E-1,1.769982876E-1,-1.584636372E-1,1.271278238E-1,2.694449883E-1
1.413732916E-1,1.917135367E-1,-8.212472856E-2,-3.214682221E-2,2.110259922E-1
1.513242917E-1,1.742362091E-1,7.578342319E-2,8.256970167E-2,2.071693496E-1
1.612762916E-1,7.950561449E-2,8.451916337E-2,5.257471329E-1,5.384001109E-1
1.712272917E-1,-8.910264954E-2,-4.415115595E-2,7.548211616E-1,7.613432818E-1
1.811792916E-1,-1.295687440E-1,-1.829412514E-1,5.623571348E-1,6.053933498E-1
1.911302917E-1,-2.144100890E-2,-2.107359910E-1,2.784034789E-2,2.136456406E-1
2.010822915E-1,1.224218385E-1,-1.441321117E-1,-3.169413078E-1,3.690704062E-1
2.110332916E-1,2.199919872E-1,-9.977396429E-2,-4.604395813E-1,5.199576198E-1
2.209852915E-1,2.603206721E-1,-7.153366685E-2,-7.752741373E-1,8.209347756E-1
2.309362916E-1,2.357212166E-1,1.249959290E-2,-1.100372311E0,1.125406573E0
2.408882917E-1,3.996815289E-1,9.817358136E-2,-1.407155836E0,1.466107405E0
2.508392916E-1,5.041741962E-1,1.097627628E-1,-1.180376254E0,1.288226527E0
2.607912917E-1,4.702456908E-1,3.352150261E-2,-8.911378849E-1,1.008157443E0
2.707422916E-1,4.642376767E-1,-6.568469703E-2,-7.348780632E-1,8.717091646E-1
2.806932917E-1,6.097575520E-1,-5.190690279E-2,-4.603080189E-1,7.657558821E-1
2.906452916E-1,8.411407558E-1,-3.813612521E-2,-8.914723456E-2,8.467109097E-1
3.005962917E-1,1.108292876E0,9.536808729E-4,2.944803983E-1,1.146748758E0
3.105482915E-1,1.306539872E0,6.021871984E-2,5.326649737E-1,1.412233942E0
3.204992916E-1,1.369570518E0,3.845012069E-2,5.750338984E-1,1.485888892E0
3.304512915E-1,1.321118443E0,-3.995577872E-2,8.656481177E-1,1.579967426E0
3.404022916E-1,1.211897571E0,-1.618684709E-2,1.163731570E0,1.680246679E0
3.503542917E-1,1.145225425E0,-9.875245571E-2,1.192678211E0,1.656434314E0
3.603052916E-1,1.124459477E0,-1.012807918E-1,1.193714338E0,1.643052292E0
3.702562917E-1,1.004836701E0,-1.820682621E-1,1.265004761E0,1.625756037E0
3.802082916E-1,1.059068164E0,-9.418578029E-2,1.376586592E0,1.739392705E0
3.901592917E-1,1.066463284E0,1.555300891E-2,1.394898317E0,1.755940531E0
4.001112916E-1,8.944936019E-1,3.270873964E-2,1.420941231E0,1.679363763E0
4.100622917E-1,7.106647432E-1,8.676800251E-2,1.405927336E0,1.577721375E0
4.200142915E-1,5.062642103E-1,1.804947764E-1,1.330241561E0,1.434721027E0
4.299652916E-1,3.487065992E-1,2.182087326E-1,1.383296857E0,1.443163725E0
4.399172915E-1,2.861826146E-1,2.031334412E-1,1.363777097E0,1.408208668E0
4.498682916E-1,3.576200947E-1,1.247105849E-1,1.272439495E0,1.327609555E0
4.598202917E-1,3.950595242E-1,-4.382663548E-2,1.276446007E0,1.336902095E0
4.697712916E-1,4.712858739E-1,-1.824097395E-1,1.317873530E0,1.411444058E0
4.797222917E-1,7.250395381E-1,-1.534946734E-1,1.368542578E0,1.556326358E0
4.896742916E-1,7.727662665E-1,-4.209802312E-1,1.501905872E0,1.740722065E0
4.996252917E-1,6.491695762E-1,-6.198592383E-1,1.387827864E0,1.652789398E0
5.095772916E-1,6.893419942E-1,-2.894278193E-1,1.162233514E0,1.381936174E0
5.195282917E-1,4.957517937E-1,-9.869807661E-2,8.296456414E-1,9.715055541E-1
5.294802915E-1,3.044130635E-1,-2.277239066E-1,6.704698133E-1,7.707498047E-1
5.394312916E-1,2.201242805E-1,-2.885390425E-1,6.825063068E-1,7.729969836E-1
5.493832915E-1,8.083717167E-2,-2.605291253E-1,5.625255346E-1,6.251760157E-1
5.593342916E-1,5.835521221E-4,-2.230724466E-1,3.306261313E-1,3.988424446E-1
5.692862917E-1,8.270652652E-2,-1.979785359E-1,7.026189744E-2,2.257711329E-1
5.792372916E-1,1.229803938E-1,-1.951636863E-1,-2.988669795E-1,3.775374327E-1
5.891882917E-1,8.100440204E-2,-2.010284436E-1,-5.566520065E-1,5.973571835E-1
5.991402916E-1,-9.126451135E-2,-2.458812654E-1,-6.252521253E-1,6.780317307E-1
6.090912917E-1,-4.092331749E-1,-1.577684033E-1,-6.603517914E-1,7.927339711E-1
6.190432915E-1,-6.593975258E-1,-3.234779102E-1,-4.603501189E-1,8.668132944E-1
6.289942916E-1,-4.123146576E-1,-2.905569166E-1,-1.101112568E-1,5.162859552E-1
6.389462915E-1,-5.431841147E-1,-2.448743749E-1,2.579879254E-1,6.492843842E-1
6.488972916E-1,-7.453498417E-1,-5.408791423E-2,8.576590669E-1,1.137563609E0
6.588492917E-1,-8.492770833E-1,7.006192267E-2,1.190046964E0,1.463691229E0
6.688002916E-1,-9.886004448E-1,2.488387871E-1,1.388866915E0,1.722847320E0
6.787512917E-1,-6.576877999E-1,4.072135466E-1,1.212714865E0,1.438420474E0
6.887032916E-1,-4.592754006E-2,2.635269928E-1,7.986469200E-1,8.422545445E-1
6.986542917E-1,3.745223486E-1,-2.351194650E-1,6.925986010E-1,8.217304756E-1
7.086062916E-1,6.730829340E-1,-7.616086096E-1,1.253455925E0,1.613765803E0
7.185572917E-1,8.486227798E-1,-1.008717498E0,1.863954648E0,2.282980189E0
7.285092915E-1,4.899960870E-1,-8.872278517E-1,1.878610986E0,2.134583956E0
7.384602916E-1,-1.670175290E-1,-6.330388623E-1,1.882248247E0,1.992860135E0
7.484122915E-1,-2.994797677E-1,-2.396864328E-1,1.913748659E0,1.951812401E0
7.583632916E-1,-3.181177676E-2,2.744314653E-1,1.987068358E0,2.006181766E0
7.683138750E-1,8.143218434E-1,6.488032481E-1,1.297382255E0,1.663510275E0
7.782658751E-1,1.498828483E0,7.592884344E-1,-5.436214864E-1,1.765936032E0
7.882168749E-1,1.971875246E0,9.648686430E-1,-2.905360420E0,3.641480833E0
7.981688750E-1,2.994395388E0,1.738778625E0,-7.133358098E0,7.929347552E0
8.081198749E-1,3.203669575E0,1.606677452E0,-9.082033346E0,9.763618227E0
8.180718750E-1,-1.396736097E-1,4.436264974E-1,-1.435983778E0,1.509424592E0
8.280228749E-1,-2.112604862E0,2.436911908E-1,3.106268996E-1,2.149179791E0
8.379738750E-1,-2.450872720E0,8.575891927E-1,3.706327808E-1,2.622900107E0
8.479258749E-1,-5.018577486E-1,1.402369890E0,-5.979877647E-1,1.605020833E0
8.578768750E-1,6.587911695E-1,1.079520263E0,-1.594633942E0,2.035246229E0
8.678288748E-1,6.355128193E-1,3.986523458E-1,-1.543574885E0,1.716223663E0
8.777798750E-1,5.510837030E-1,-7.935665667E-2,-7.667886579E-1,9.476051776E-1
8.877318751E-1,5.484068477E-1,-4.305775586E-1,3.631458597E-1,7.861437655E-1
8.976828749E-1,3.317341787E-1,-8.946850982E-1,1.368152715E0,1.668038021E0
9.076348750E-1,3.011111408E-1,-1.116439290E0,1.611727546E0,1.983625542E0
9.175858749E-1,5.706736296E-1,-1.203573328E0,1.161364471E0,1.767208132E0
9.275368750E-1,1.234767639E0,-1.081301617E0,3.485398073E-1,1.677898777E0
9.374888749E-1,1.212069917E0,-8.091552436E-1,-6.928843836E-1,1.613671113E0
9.474398750E-1,7.654209942E-1,-2.649183378E-1,-1.009434074E0,1.294221068E0
9.573918749E-1,6.830132604E-1,6.391065180E-2,-6.458612216E-1,9.421933999E-1
9.673428750E-1,-4.932009459E-2,-3.175947341E-1,-4.145544335E-2,3.240639453E-1
9.772948748E-1,-6.095424110E-1,-4.680351144E-1,8.105025883E-1,1.116921333E0
9.872458749E-1,-6.378622305E-1,-6.411819872E-1,1.016950085E0,1.360944540E0
9.971968750E-1,-8.590986514E-1,-2.823243293E-1,1.649066842E0,1.880738942E0
1.007148875E0,-1.884589764E0,-8.266504052E-1,1.416882971E0,2.498516925E0
1.017099875E0,-2.712670691E0,-2.763765123E0,-1.023221662E0,4.005491543E0
1.027051875E0,-1.934601585E0,-2.203452467E0,-2.078606519E0,3.594230256E0
1.037002875E0,-6.190149003E-1,-1.046404849E0,-1.497466666E0,1.928872461E0
1.046954875E0,-5.104677737E-2,-7.475475177E-1,-1.274410884E-1,7.600488772E-1
1.056905875E0,1.831564289E-1,-7.091500220E-1,8.060166045E-1,1.089083467E0
1.066857875E0,5.530021745E-1,-4.360257018E-1,1.183452328E0,1.377130797E0
1.076808875E0,6.435322756E-1,-3.590400910E-1,1.645284570E0,1.802776995E0
1.086759875E0,1.072823739E-1,-1.411693275E-1,2.127754413E0,2.135129301E0
1.096711875E0,-1.969856787E-1,3.259828573E-1,1.793162993E0,1.833167123E0
1.106662875E0,-1.104217440E-1,5.854474971E-1,1.253792725E0,1.388141898E0
1.116614875E0,-3.677752465E-1,9.231645468E-1,7.566355526E-1,1.248995105E0
1.126565875E0,-3.498874444E-1,1.191350016E0,9.394282848E-1,1.557004042E0
1.136517875E0,-4.824660426E-1,1.178877613E-1,3.101997605E-1,5.855722825E-1
1.146468875E0,7.321708024E-2,1.003668720E-1,1.228646189E-1,1.747282587E-1
1.156419875E0,1.268442923E0,2.256051680E-1,3.114648056E-1,1.325464246E0
1.166371875E0,2.381469194E0,1.702489927E-1,7.747282997E-1,2.510096448E0
1.176322875E0,3.054773152E0,6.671760768E-2,1.579537893E0,3.439626463E0
1.186274875E0,2.396721656E0,-3.555665526E-1,1.704005233E0,2.962150588E0
1.196225875E0,1.672993648E-1,-3.733853576E-1,8.825088564E-1,9.727423010E-1
1.206177875E0,-1.555651724E-1,3.947139537E-1,3.024238408E-2,4.253401344E-1
1.216128875E0,5.926199841E-1,-1.817080736E-1,-1.158391893E0,1.313806701E0
1.226079875E0,2.493632823E-1,6.562485078E-1,-9.886282191E-1,1.212530373E0
1.236031875E0,-4.514775538E-1,2.714575714E-1,-9.443343911E-1,1.081336505E0
1.245982875E0,-1.265949671E0,4.402193248E-2,3.017660290E-2,1.267074239E0
1.255934875E0,-7.995669794E-1,2.741522607E-1,4.856749946E-1,9.748574342E-1
1.265885875E0,1.172553849E-1,-5.917727226E-1,7.072175172E-1,9.295700066E-1
1.275837875E0,-1.200373147E0,-1.769104332E-2,5.102540579E-1,1.304441593E0
1.285788875E0,-1.031979184E0,1.344160273E0,6.167587522E-1,1.803368857E0
1.295739875E0,-1.401958830E0,6.338650739E-1,1.266068369E-1,1.543794930E0
1.305691875E0,-3.347490031E0,4.593990692E-1,-7.430717665E-1,3.459608744E0
1.315642875E0,-5.345001224E0,1.132050479E0,-1.146307160E0,5.582525994E0
1.325594875E0,-6.962988945E0,2.327248694E0,-7.545513126E-1,7.380287881E0
1.335545875E0,-4.679369397E0,2.222270123E0,7.804328433E-1,5.238707653E0
1.345497875E0,-1.674299916E0,2.197620454E-1,2.496834466E0,3.014259099E0
1.355448875E0,4.388504916E-1,-4.760503314E-1,3.397564124E0,3.458707222E0
1.365399875E0,2.819584690E0,-2.431305890E-1,2.825956109E0,3.999399735E0
1.375351875E0,4.661882129E0,-2.567994788E-2,1.911014794E0,5.038430508E0
1.385302875E0,5.698570660E0,6.758080289E-2,9.749942663E-1,5.781772094E0
1.395254875E0,6.124385954E0,-3.161077872E-2,-4.195994112E-1,6.138824498E0
1.405205875E0,6.001153545E0,-4.066200542E-1,-2.363634309E0,6.462658190E0
1.415157875E0,4.451890488E0,-9.346169034E-1,-3.235256527E0,5.582089436E0
1.425108875E0,3.556112253E0,-8.739706059E-1,-2.594790823E0,4.488061764E0
1.435059875E0,4.066502259E0,-7.194019452E-1,-2.097163243E0,4.631638311E0
1.445011875E0,5.251765616E0,-4.780600195E-1,-1.806416584E0,5.574291376E0
1.454962875E0,6.267494802E0,-2.932574531E-1,-8.757833889E-1,6.335178575E0
1.464914875E0,6.110348543E0,-2.842849007E-1,-2.816144773E-1,6.123437265E0
1.474865875E0,5.296503248E0,3.240790039E-1,-6.978146097E-1,5.352094831E0
1.484817875E0,2.966442189E0,3.545386121E-1,-8.246629366E-1,3.099281505E0
1.494768875E0,-2.368484867E-1,-2.250888589E-1,-6.999884583E-1,7.724933927E-1
1.504719875E0,-3.035800107E0,-4.210828498E-1,-1.590885584E-1,3.068990425E0
1.514671875E0,-4.809717867E0,-4.561866090E-1,6.106560132E-1,4.869742596E0
1.524622875E0,-5.273534215E0,1.624841827E-1,1.398848989E0,5.458327832E0
1.534574875E0,-5.169908105E0,9.832353321E-1,1.382782448E0,5.441212074E0
1.544525875E0,-3.956365274E0,9.528233787E-1,1.248520875E0,4.256700947E0
1.554477875E0,-2.964094532E0,-3.038371128E-1,1.052246364E0,3.159967689E0
1.564428875E0,-2.142202883E0,-9.503280795E-1,1.223990344E0,2.643919252E0
1.574379875E0,-1.172317037E0,-1.172447430E0,1.091419931E0,1.984983042E0
1.584331875E0,-6.104230016E-1,-1.074682277E0,1.276888057E0,1.777076629E0
1.594282875E0,-5.857506752E-2,-9.355805245E-1,1.636116721E0,1.885635140E0
1.604234875E0,7.037644440E-1,-6.570068917E-1,1.606031481E0,1.872506226E0
1.614185875E0,1.604590580E0,-5.861570567E-1,1.072112718E0,2.016858127E0
1.624137875E0,2.099741573E0,-1.066705505E0,3.508422947E-1,2.381147963E0
1.634088875E0,2.250497410E0,-1.608759938E0,2.497390536E0,3.726903087E0
1.644039875E0,2.053908173E0,-1.457785122E0,1.421047651E0,2.891894305E0
1.653991875E0,1.332386904E0,-9.669546372E-1,-9.616447806E-1,1.906572007E0
1.663942875E0,6.401935154E-1,-1.447185874E-2,-2.217990107E0,2.308579062E0
1.673894875E0,1.223036370E0,9.315854144E-1,-2.000735786E0,2.523214821E0
1.683845875E0,1.900869582E0,1.147440643E0,-8.857762805E-1,2.390507230E0
1.693797875E0,2.035604049E0,1.301130028E0,-8.550953552E-2,2.417423231E0
1.703748875E0,2.013705057E0,1.222620049E0,2.141157694E0,3.183451603E0
1.713699875E0,1.829745805E0,1.134332355E0,1.876563292E0,2.855900802E0
1.723651875E0,1.727946950E0,9.597204620E-1,7.509508896E-1,2.114424571E0
1.733602875E0,1.528987836E0,4.340148443E-1,-1.476807868E-1,1.596240052E0
1.743554875E0,1.274207109E0,-4.433680505E-1,-5.902580014E-1,1.472611114E0
1.753505875E0,7.884093225E-1,-1.367557322E0,-6.737989256E-1,1.716335422E0
1.763457625E0,1.576339173E-1,-2.024392013E0,-1.419423148E0,2.477453036E0
1.773409625E0,-3.195953590E-1,-2.599234123E0,-1.781854770E0,3.167517267E0
1.783360625E0,-7.187906188E-1,-3.281189037E0,-1.590194589E0,3.716393451E0
1.793312625E0,-1.026110918E0,-3.586614254E0,-8.715064430E-1,3.830956656E0
1.803263625E0,-1.360390974E0,-2.928275658E0,-2.989418238E-2,3.228986776E0
1.813215625E0,-1.004490838E0,-2.424160300E0,-4.794284141E-1,2.667471951E0
1.823166625E0,-4.492713994E-1,-2.102849953E0,-5.896462364E-1,2.229687287E0
1.833117625E0,-3.028682292E-2,-1.897676418E0,-6.801574802E-1,2.016111921E0
1.843069625E0,6.102738976E-2,-1.839891894E0,-7.578098197E-1,1.990779306E0
1.853020625E0,-1.333802515E-1,-2.097943554E0,-6.782966039E-1,2.208901023E0
1.862972625E0,-3.900215632E-1,-2.220716956E0,-5.558480144E-2,2.255391383E0
1.872923625E0,-2.492726505E-2,-5.963826674E-1,1.379969791E0,1.503532600E0
1.882875625E0,1.062860084E-1,5.829422575E-1,2.173239173E0,2.252573394E0
1.892826625E0,-5.682464504E-1,-4.615967453E-1,3.766331935E-1,8.233031921E-1
1.902777625E0,-9.346914554E-1,-8.160385859E-1,-7.599544322E-1,1.455025027E0
1.912729625E0,-8.773916656E-1,-4.530422688E-1,-1.705437363E0,1.970680093E0
1.922680625E0,-6.219730067E-1,-1.813899851E-1,-2.192735983E0,2.286447865E0
1.932632625E0,-5.557948047E-1,3.561188221E-2,-2.186739371E0,2.256547174E0
1.942583625E0,-4.651471746E-1,3.976451629E-1,-2.361030690E0,2.439046840E0
1.952534625E0,-1.255794811E-1,9.600362116E-1,-1.916308863E0,2.147016393E0
1.962486625E0,3.031108886E-1,1.773812510E0,-1.067275901E0,2.092215304E0
1.972437625E0,6.079063600E-1,2.225985882E0,-1.088005304E0,2.551140692E0
1.982389625E0,9.049723971E-1,1.820339389E0,-1.167220019E0,2.344144429E0
1.992340625E0,9.607875788E-1,2.123994069E0,-1.668052751E0,2.866507205E0
2.002292625E0,1.342776822E0,2.340268543E0,-1.142763382E0,2.930156070E0
2.012243625E0,1.634618372E0,1.922093806E0,8.367425533E-1,2.658300194E0
2.022194625E0,1.514376814E0,1.378509741E0,2.337298157E0,3.107505256E0
2.032146625E0,9.548450536E-1,1.266913877E0,1.368627362E0,2.095218534E0
2.042097625E0,4.055649242E-1,1.406371724E0,1.167492719E0,1.872272304E0
2.052049625E0,7.435114771E-2,1.613941448E0,1.293184247E0,2.069459008E0
2.062000625E0,1.303052008E-2,1.917897259E0,1.088515546E0,2.205304012E0
2.071951625E0,1.541080463E-1,1.926145341E0,8.903731421E-1,2.127568917E0
2.081903625E0,3.543137866E-1,1.609197017E0,5.798157513E-1,1.746779781E0
2.091854625E0,5.957038057E-1,9.370478833E-1,1.218951579E0,1.648867706E0
2.101806625E0,5.604617599E-1,7.933999211E-1,1.901046753E-2,9.715771801E-1
2.111757625E0,6.750101763E-1,7.438418448E-1,-1.445655073E0,1.760357355E0
2.121709625E0,3.331047660E-1,-2.413502580E-1,-2.045274028E0,2.086229753E0
2.131660625E0,-2.311842889E-2,-1.209525794E0,-1.895264149E0,2.248446864E0
2.141611625E0,-5.100225082E-1,-2.228674432E0,-1.102772008E0,2.538349618E0
2.151563625E0,-9.792326206E-1,-3.395781600E0,-1.580937278E-1,3.537686084E0
2.161514625E0,-1.372254390E0,-4.637053682E0,4.520096505E-1,4.856918949E0
2.171466625E0,-1.807678121E0,-5.532277016E0,6.602067804E-1,5.857445020E0
2.181417625E0,-2.080656846E0,-5.975899420E0,2.143646269E-1,6.331386814E0
2.191368625E0,-9.297181061E-1,-3.320211015E0,-5.862441802E-1,3.497407494E0
2.201320625E0,-3.813805479E-1,3.356442118E-1,-1.302218195E0,1.397812715E0
2.211271625E0,-5.952345666E-1,5.656789380E-1,-2.190700275E0,2.339543661E0
2.221223625E0,-6.787541485E-1,2.038310140E-1,-2.792814968E0,2.881331241E0
2.231174625E0,-5.412074634E-1,2.927642405E-1,-2.628823957E0,2.699876260E0
2.241125625E0,-1.373893949E-1,5.348646963E-1,-1.937891228E0,2.015038089E0
2.251077625E0,1.111517689E-1,6.544040036E-1,-1.459052213E0,1.602945001E0
2.261028625E0,7.036685497E-2,5.753303522E-1,-1.461937230E0,1.572646487E0
2.270980625E0,1.570415944E-2,4.485533613E-1,-1.409419878E0,1.479158926E0
2.280931625E0,2.033068112E-1,4.367378926E-1,-1.225422107E0,1.316712948E0
2.290883625E0,5.212310359E-1,4.229519123E-1,-1.578090999E0,1.714917291E0
2.300834625E0,8.542451701E-1,3.513135803E-1,-1.880461046E0,2.095063194E0
2.310785625E0,1.465371884E0,6.244317609E-1,-1.857055811E0,2.446607052E0
2.320737625E0,1.072793334E0,5.216499889E-1,-1.455528681E0,1.881905415E0
2.330688625E0,5.321688375E-1,4.201698071E-1,-2.064604338E-1,7.087822297E-1
2.340640625E0,6.643565494E-1,8.822419310E-1,1.050158616E0,1.523992640E0
2.350591625E0,7.806643930E-1,1.338407782E0,2.457691158E0,2.905343029E0
2.360542625E0,6.353005654E-1,1.398163403E0,3.563261644E0,3.880116139E0
2.370494625E0,4.775464877E-1,1.400573625E0,3.633086754E0,3.922878597E0
2.380445625E0,5.190254661E-1,1.679537267E0,2.909268115E0,3.399128392E0
2.390397625E0,7.834681329E-1,2.217498064E0,1.412541121E0,2.743427127E0
2.400348625E0,1.131768935E0,2.783899133E0,-1.639197472E-2,3.005206150E0
2.410300625E0,1.393287702E0,2.237038874E0,-8.288649651E-1,2.762717987E0
2.420251625E0,1.567880299E0,1.788076792E0,-9.438259026E-1,2.558568854E0
2.430202625E0,1.650116709E0,1.371982495E0,-5.867072797E-1,2.224735164E0
2.440154625E0,1.501934816E0,6.218876374E-1,-1.500734309E-1,1.632505577E0
2.450105625E0,1.295425485E0,1.636518717E-2,1.526708007E-2,1.295618806E0
2.460057625E0,1.142787428E0,-3.817693877E-1,-2.884980389E-1,1.238927799E0
2.470008625E0,1.140487134E0,-6.037027967E-1,-6.462062073E-1,1.443173736E0
2.479959625E0,9.508467275E-1,-1.058821412E0,-2.366987614E-1,1.442649848E0
2.489911625E0,4.668016443E-1,-1.601813153E0,2.891084882E-1,1.693308262E0
2.499862625E0,-2.658246562E-1,-1.836906306E0,1.921488619E-1,1.865960532E0
2.509814625E0,-1.171867386E0,-1.580073205E0,2.349972216E-1,1.981193630E0
2.519765625E0,-1.591244018E0,-1.204123551E0,5.617619248E-1,2.073052704E0
2.529716625E0,-1.372442963E0,-7.896167725E-1,4.452537775E-1,1.644793379E0
2.539668625E0,-1.064607816E0,-8.591869444E-1,-3.068676881E-1,1.402055557E0
2.549619625E0,-1.017141874E0,-6.439678931E-1,-5.901840341E-1,1.340742120E0
2.559571625E0,-8.875398007E-1,-4.674615026E-2,-7.097794747E-1,1.137408899E0
2.569522625E0,-5.596846649E-1,5.834766930E-1,-9.972305696E-2,8.146389774E-1
2.579473625E0,-3.381535444E-1,1.022113177E0,1.443432327E-1,1.086231161E0
2.589425625E0,-2.470451537E-1,1.274059174E0,7.267925334E-1,1.487442595E0
2.599376625E0,-2.769264722E-1,1.021716735E0,1.324952170E0,1.695904364E0
2.609328625E0,-4.804882219E-1,4.867479587E-1,1.457494515E0,1.609994649E0
2.619279625E0,-5.712507498E-1,-1.784780717E-1,1.200185452E0,1.341128987E0
2.629230625E0,-6.419725308E-1,-6.273308104E-1,8.441648626E-1,1.232187888E0
2.639182625E0,-7.391295737E-1,-7.949985498E-1,8.094768405E-1,1.354100431E0
2.649133625E0,-7.671076235E-1,-7.616191345E-1,5.465895331E-1,1.211312482E0
2.659085625E0,-7.284364781E-1,-4.554127300E-1,1.637115133E-1,8.745409749E-1
2.669036625E0,-6.679534641E-1,-3.383158046E-1,-3.910559356E-1,8.447154306E-1
2.678987625E0,-6.215189704E-1,-3.811109912E-1,-9.375016272E-1,1.187619770E0
2.688939625E0,-5.567983331E-1,-3.242456496E-1,-1.103073725E0,1.277470652E0
2.698890625E0,-4.474327424E-1,-1.849287200E-1,-1.129347603E0,1.228747614E0
2.708842625E0,-3.136525413E-1,-2.929273778E-1,-7.845583463E-1,8.942685078E-1
2.718793625E0,-1.774758589E-1,-5.022857648E-1,-3.006603205E-1,6.117068729E-1
2.728745625E0,-1.360170534E-1,-2.848319077E-1,8.024715107E-2,3.256830664E-1
2.738696625E0,-1.307934433E-1,-7.654239178E-2,3.421299799E-1,3.741905741E-1
2.748647625E0,-1.668631625E-1,-1.557797652E-1,2.782854016E-1,3.599352928E-1
2.758598625E0,-2.372308946E-1,-4.796038306E-1,2.218398901E-1,5.792333454E-1
2.768549625E0,-5.415422165E-1,-5.994799376E-1,1.613176632E-1,8.238128163E-1
2.778501625E0,-9.409155241E-1,-5.803098410E-1,4.678943792E-2,1.106467707E0
2.788452625E0,-1.070941082E0,-4.947709233E-1,6.738327663E-2,1.181631742E0
2.798403625E0,-1.173442041E0,-5.662016791E-1,-2.337038358E-1,1.323694847E0
2.808355625E0,-1.193854086E0,-5.733680266E-1,-1.014492281E-1,1.328281002E0
2.818306625E0,-1.079609725E0,-3.993309152E-1,2.274017251E-1,1.173343037E0
2.828258625E0,-8.322075990E-1,-2.417057687E-1,4.184934103E-1,9.623553922E-1
2.838209625E0,-4.611393468E-1,-2.758552623E-1,4.478207052E-1,6.994919634E-1
2.848160625E0,-1.266713025E-1,-3.513901788E-1,5.057385457E-1,6.287226361E-1
2.858112625E0,1.486436771E-1,-5.708759433E-1,5.142649555E-1,7.825999807E-1
2.868063625E0,2.665099499E-1,-1.008557577E0,5.706052172E-1,1.189035850E0
2.878015625E0,2.853480707E-1,-1.117183641E0,5.853483868E-1,1.293118534E0
2.887966625E0,2.701305458E-1,-1.024826869E0,3.052860528E-1,1.102923478E0
2.897917625E0,1.371894202E-1,-7.820726949E-1,-4.222975175E-2,7.951364594E-1
2.907869625E0,-7.195130423E-2,-3.838539201E-1,-6.032315111E-1,7.186160854E-1
2.917820625E0,-3.658564827E-1,-1.921956396E-1,-1.194522423E0,1.263991277E0
2.927772625E0,-5.424893193E-1,-3.636517900E-1,-1.691753855E0,1.813441036E0
2.937723625E0,-6.827467735E-1,-6.124256730E-1,-2.052044080E0,2.247686204E0
2.947674625E0,-7.022144933E-1,-7.673160768E-1,-2.302241176E0,2.526300376E0
2.957626625E0,-6.734732357E-1,-7.123937649E-1,-2.379013948E0,2.573087336E0
2.967577625E0,-6.077912430E-1,-5.784001404E-1,-2.263627333E0,2.414117980E0
2.977529625E0,-5.811158797E-1,-3.132727647E-1,-2.027201600E0,2.131990107E0
2.987480625E0,-6.827572254E-1,-1.777881002E-1,-1.857815949E0,1.987271028E0
2.997431625E0,-9.146829412E-1,2.064599222E-1,-1.628529666E0,1.879196492E0
3.007383625E0,-1.693172243E0,1.983377303E0,-1.388921294E0,2.954609980E0
3.017334625E0,-2.022555403E0,1.706904575E0,-1.044242549E0,2.845117939E0
3.027286625E0,-2.238586047E0,1.223534553E0,-6.458565438E-1,2.631622117E0
3.037237625E0,-2.488843077E0,8.993280798E-1,-3.041651416E-1,2.663765622E0
3.047188625E0,-2.630818735E0,7.612951988E-1,-1.710257953E-1,2.744089543E0
3.057140625E0,-2.704309173E0,6.387878448E-1,-2.538369870E-1,2.790299487E0
3.067091625E0,-2.637242779E0,5.407288688E-1,-3.054907236E-1,2.709384019E0
3.077043625E0,-2.439085025E0,4.889231229E-1,-2.915848571E-1,2.504636363E0
3.086994625E0,-2.138308345E0,5.041369933E-1,-2.717458391E-1,2.213676239E0
3.096945625E0,-2.031146132E0,2.159768504E-1,-1.934574870E-1,2.051737412E0
3.106897625E0,-2.063752984E0,-2.564998090E-2,-2.161908219E-1,2.075204272E0
3.116848625E0,-2.120336782E0,-1.748387647E-1,-3.712584329E-1,2.159682728E0
3.126800625E0,-2.154296095E0,3.539611995E-2,-5.701415330E-1,2.228745368E0
3.136751625E0,-2.304474812E0,1.449840510E-1,-7.399177784E-1,2.424686135E0
3.146702625E0,-2.426506495E0,1.717145973E-1,-8.056053990E-1,2.562502631E0
3.156654625E0,-2.640702576E0,2.527722090E-1,-7.383869773E-1,2.753619293E0
3.166605625E0,-2.815523214E0,3.048960435E-1,-7.365994104E-1,2.926211076E0
3.176557625E0,-2.931840706E0,-8.353507698E-2,1.139283923E-1,2.935242360E0
3.186508625E0,-3.130686676E0,-5.476361847E-1,5.524222769E-2,3.178703534E0
3.196459625E0,-3.154185759E0,-8.794738591E-1,-6.403296094E-1,3.336522753E0
3.206411625E0,-3.204026256E0,-9.148693943E-1,-8.327645463E-1,3.434569412E0
3.216362625E0,-3.181797773E0,-8.580303651E-1,-1.017833746E0,3.449063454E0
3.226314625E0,-3.116116877E0,-8.392169487E-1,-1.154436252E0,3.427417765E0
3.236265625E0,-3.155987286E0,-8.167987239E-1,-1.321943046E0,3.517804617E0
3.246216625E0,-3.183948671E0,-8.094774252E-1,-1.726180360E0,3.711129407E0
3.256168625E0,-3.009362214E0,-9.315555936E-1,-2.029738707E0,3.747518643E0
3.266119625E0,-2.666741397E0,-1.024586549E0,-2.177596664E0,3.592104468E0
3.276071625E0,-2.231561495E0,-1.096482743E0,-2.296116802E0,3.384419223E0
3.286022625E0,-1.693468843E0,-1.097417713E0,-2.347564114E0,3.095677572E0
3.295973625E0,-1.032901436E0,-1.060089088E0,-2.291347813E0,2.727810303E0
3.305925625E0,-7.817997761E-2,-1.109361820E0,-2.351720315E0,2.601419650E0
3.315876625E0,8.368608132E-1,-1.169671757E0,-2.484032280E0,2.870345695E0
3.325827625E0,1.692566910E0,-1.266180051E0,-2.415420467E0,3.209711934E0
3.335779625E0,2.562283813E0,-1.268486778E0,-2.127981870E0,3.564079668E0
3.345730625E0,3.314227560E0,-1.099437341E0,-1.621149895E0,3.849804380E0
3.355682625E0,3.756684614E0,-1.042056860E0,-1.137953535E0,4.061219033E0
3.365633625E0,4.132762322E0,-8.535133910E-1,-7.595894929E-1,4.287794971E0
3.375584625E0,4.045143549E0,-7.891747230E-1,-4.847550814E-1,4.149815727E0
3.385536625E0,3.781696956E0,-5.148321354E-1,-3.123826723E-1,3.829342885E0
3.395487625E0,3.332739552E0,-3.747673470E-1,-1.028430216E-1,3.355321173E0
3.405439625E0,2.568249142E0,-5.075020659E-1,7.031846926E-2,2.618855989E0
3.415390625E0,1.901524032E0,-4.734022737E-1,1.172857904E-1,1.963073945E0
3.425341625E0,1.708588866E0,-2.776620519E-1,7.401083976E-2,1.732584697E0
3.435293625E0,1.131977389E0,-9.037971067E-1,2.255646761E-1,1.465981392E0
3.445244625E0,1.212611662E0,-9.470606554E-1,6.247665140E-1,1.660627630E0
3.455196625E0,1.681400921E0,-7.917890131E-1,1.281597112E0,2.257549569E0
3.465147625E0,1.865804415E0,-5.549598223E-1,1.862838415E0,2.694322452E0
3.475098625E0,1.457869906E0,-5.376368612E-1,2.463136670E0,2.912298116E0
3.485050625E0,9.035848528E-1,-5.069594443E-1,2.827734247E0,3.011570095E0
3.495001625E0,1.863129021E-1,-4.743460143E-1,2.500142821E0,2.551554578E0
3.504953625E0,-2.263329271E-1,-4.070504093E-1,2.045139981E0,2.097501888E0
3.514904625E0,-3.334536255E-1,-3.428555828E-1,1.739778499E0,1.804319954E0
3.524855625E0,-5.514260575E-1,-2.373782444E-1,1.175357297E0,1.319804494E0
3.534807625E0,-8.545392850E-1,-1.014491916E-1,6.731440374E-1,1.092543923E0
3.544758625E0,-9.339204269E-1,1.458178639E-1,6.646778539E-1,1.155537478E0
3.554710625E0,-9.661420935E-1,3.274943626E-1,1.023775248E0,1.445267747E0
3.564661625E0,-8.327809185E-1,5.315002084E-1,1.409868651E0,1.721553410E0
3.574612625E0,-7.437397378E-1,7.340337253E-1,1.810494725E0,2.090417531E0
3.584564625E0,-6.788195642E-1,9.306931293E-1,2.158463698E0,2.446620370E0
3.594515625E0,-5.444608542E-1,1.254039477E0,2.538989383E0,2.883664287E0
3.604466625E0,-1.958543886E-1,1.635546910E0,2.740022504E0,3.197044879E0
3.614418625E0,4.306266752E-1,2.163572702E0,2.710825602E0,3.495005238E0
3.624369625E0,7.924405392E-1,2.721212304E0,2.479830178E0,3.765968152E0
3.634321625E0,1.312542332E0,3.114960882E0,2.224978699E0,4.046761530E0
3.644272625E0,1.675840804E0,3.329277708E0,1.967090177E0,4.214495963E0
3.654223625E0,1.678087158E0,3.402662019E0,1.771416321E0,4.187123249E0
3.664175625E0,1.579098913E0,3.369601277E0,1.577233797E0,4.041711592E0
3.674126625E0,1.538206410E0,3.268288325E0,1.354000845E0,3.857603637E0
3.684078625E0,1.498687565E0,3.038538358E0,1.064687631E0,3.551385578E0
3.694029625E0,1.422511209E0,2.724598426E0,7.591688588E-1,3.165961478E0
3.703980625E0,1.332727505E0,2.346056117E0,3.305913404E-1,2.718351070E0
3.713932625E0,1.063517238E0,1.879773413E0,-1.166200849E-1,2.162918686E0
3.723883625E0,8.054378032E-1,1.327440745E0,-6.368646955E-1,1.678220970E0
3.733835625E0,5.118682915E-1,6.806042075E-1,-1.150166030E0,1.431123032E0
3.743786625E0,2.337422630E-1,-2.276321054E-2,-1.748878813E0,1.764576638E0
3.753737625E0,-1.168851100E-1,-7.579114151E-1,-2.478983209E0,2.594889129E0
3.763690125E0,-4.516919274E-1,-1.400156134E0,-3.466098169E0,3.765408253E0
3.773641125E0,-7.674156987E-1,-1.857211347E0,-4.652155578E0,5.067614070E0
3.783592125E0,-1.075353610E0,-2.254229688E0,-5.776431599E0,6.293258209E0
3.793544125E0,-1.119644003E0,-2.464659285E0,-6.514179475E0,7.054266958E0
3.803495125E0,-1.311519069E0,-2.605096541E0,-6.385904428E0,7.020426313E0
3.813447125E0,-1.821939480E0,-2.539221810E0,-5.402221491E0,6.241082271E0
3.823398125E0,-2.095163788E0,-1.956935025E0,-4.065329600E0,4.974556336E0
3.833349125E0,-1.969767471E0,-1.454669725E0,-2.946573350E0,3.831232492E0
3.843301125E0,-1.663847872E0,-1.393641751E0,-1.938959807E0,2.910359463E0
3.853252125E0,-1.104000801E0,-1.756057439E0,-8.889086339E-1,2.256704247E0
3.863204125E0,-3.142784858E-1,-2.381946326E0,2.285559654E-1,2.413436781E0
3.873155125E0,4.520319064E-1,-2.940472950E0,1.126842364E0,3.181271401E0
3.883106125E0,1.076814610E0,-3.428639444E0,1.810112025E0,4.023879183E0
3.893058125E0,1.861936774E0,-3.508622922E0,2.268831647E0,4.574367760E0
3.903009125E0,2.547867503E0,-3.321210304E0,2.634448979E0,4.945946635E0
3.912961125E0,2.638545538E0,-3.116821466E0,2.881863384E0,4.998163180E0
3.922912125E0,2.163565393E0,-2.463479317E0,2.818839755E0,4.323841246E0
3.932863125E0,1.632360762E0,-1.144009497E0,2.619267853E0,3.291492590E0
3.942815125E0,1.000198909E0,-4.688654190E-1,2.695382813E0,2.912957457E0
3.952766125E0,7.235584384E-1,4.512524360E-1,2.831645157E0,2.957258844E0
3.962717125E0,5.742263979E-1,1.167146344E0,2.757491938E0,3.048889688E0
3.972669125E0,6.515435457E-1,1.659235734E0,2.643802185E0,3.188614465E0
3.982620125E0,1.156618286E0,2.357338904E0,2.533635964E0,3.648852391E0
3.992572125E0,1.839259956E0,2.875446650E0,2.331398317E0,4.133580619E0
4.002523125E0,2.299424572E0,2.912577639E0,2.210129549E0,4.319159002E0
4.012474125E0,2.364646900E0,2.601953663E0,2.151437537E0,4.121941448E0
4.022426125E0,2.221158129E0,2.069036089E0,2.299899512E0,3.808410631E0
4.032377125E0,1.886895468E0,1.286072279E0,2.652487639E0,3.500006727E0
4.042328125E0,1.360623255E0,3.263968402E-1,2.930661907E0,3.247554427E0
4.052280125E0,9.545393904E-1,-6.002587867E-1,3.158787518E0,3.354011723E0
4.062231125E0,5.870941461E-1,-1.467094474E0,3.352227445E0,3.706005204E0
4.072183125E0,2.348191374E-1,-2.041770523E0,3.604814297E0,4.149536481E0
4.082134125E0,-7.571102735E-2,-2.294864329E0,3.850994940E0,4.483558461E0
4.092085125E0,-4.123381195E-1,-2.210902405E0,3.913226856E0,4.513475002E0
4.102037125E0,-6.899068353E-1,-1.902340157E0,3.671960213E0,4.192631789E0
4.111988125E0,-8.533485726E-1,-1.421292064E0,3.095528830E0,3.511491657E0
4.121940125E0,-7.933662996E-1,-7.402691960E-1,2.516435795E0,2.740415603E0
4.131891125E0,-7.516801836E-1,-4.634503126E-3,2.020937916E0,2.156208394E0
4.141842125E0,-1.899485839E0,3.805438113E-1,1.717696635E0,2.589081261E0
4.151794125E0,-3.090154654E0,7.584914589E-1,1.415091677E0,3.482362637E0
4.161745125E0,-1.279699837E0,1.630865044E0,9.185777716E-1,2.267407680E0
4.171696125E0,-3.999518164E-1,2.023472831E0,4.753002799E-1,2.116675249E0
4.181648125E0,7.892199659E-1,2.270138208E0,-4.479225198E-1,2.444796560E0
4.191599125E0,1.734092520E0,2.124243745E0,-2.090564368E0,3.448180351E0
4.201551125E0,1.937292035E0,1.569073423E0,-3.993918432E0,4.708128745E0
4.211502125E0,1.522405772E0,1.057453163E0,-5.083920121E0,5.411300243E0
4.221453125E0,8.872861777E-1,8.541986847E-1,-5.330471478E0,5.470910192E0
4.231405125E0,2.867610138E-1,8.062830913E-1,-5.164933879E0,5.235347770E0
4.241356125E0,-3.423641244E-1,7.532821745E-1,-4.711636087E0,4.783739316E0
4.251308125E0,-8.622739819E-1,6.608289242E-1,-3.899697568E0,4.048191252E0
4.261259125E0,-1.235184838E0,5.064811420E-1,-2.857950026E0,3.154375229E0
4.271210125E0,-1.664470747E0,1.859350258E-1,-1.749795071E0,2.422151418E0
4.281162125E0,-1.974088417E0,-1.488701105E-1,-7.913773692E-1,2.132009739E0
4.291113125E0,-2.287295546E0,-4.394474924E-1,7.794461256E-1,2.456088614E0
4.301064125E0,-2.507003359E0,-4.472418308E-1,2.247407157E0,3.396458453E0
4.311016125E0,-2.115286688E0,2.783274651E-3,9.026416969E-1,2.299827722E0
4.320967125E0,-1.689773841E0,2.275923443E-1,-1.833675500E-1,1.714863717E0
4.330919125E0,-1.623486150E0,2.761610717E-1,-8.911051404E-1,1.872442413E0
4.340870125E0,-1.596902954E0,3.284269935E-1,-1.312528591E0,2.093010902E0
4.350821125E0,-1.589914362E0,1.430655795E-1,-1.589262105E0,2.252565088E0
4.360773125E0,-1.602991806E0,-1.912676865E-1,-1.710259854E0,2.351840731E0
4.370724125E0,-1.421202748E0,-3.789048368E-1,-1.735447758E0,2.274898909E0
4.380675125E0,-1.095078534E0,-5.457323313E-1,-1.710455589E0,2.103016666E0
4.390627125E0,-7.980117662E-1,-7.760640961E-1,-1.457824298E0,1.834216439E0
4.400578125E0,-5.580601622E-1,-8.751825875E-1,-1.477895451E0,1.805976376E0
4.410530125E0,-5.207667670E-1,-8.034103543E-1,-1.914585981E0,2.140632080E0
4.420481125E0,-7.514200556E-1,-6.825922608E-1,-2.421177050E0,2.625388086E0
4.430432125E0,-1.286372972E0,-5.851033884E-1,-2.727295747E0,3.071684145E0
4.440384125E0,-1.856096136E0,-5.035218662E-1,-2.715812985E0,3.327802173E0
4.450335125E0,-2.306609631E0,-5.273486853E-1,-2.395240556E0,3.366856389E0
4.460286125E0,-2.789961819E0,-6.866233313E-1,-1.885203722E0,3.436470809E0
4.470238125E0,-3.245315784E0,-9.230935031E-1,-1.485983904E0,3.686776955E0
4.480189125E0,-3.494640767E0,-1.161938229E0,-1.216918502E0,3.878595774E0
4.490141125E0,-3.371428239E0,-1.436412379E0,-1.090606218E0,3.823510274E0
4.500092125E0,-3.052847957E0,-1.663111854E0,-9.163353644E-1,3.595204053E0
4.510043125E0,-2.871097198E0,-1.761440386E0,-8.217800400E-1,3.467159326E0
4.519995125E0,-2.499449049E0,-1.620976818E0,-7.155337197E-1,3.063788487E0
4.529946125E0,-1.929398440E0,-1.323699111E0,-4.268139982E-1,2.378429706E0
4.539897125E0,-1.257759183E0,-9.082626253E-1,-2.624739093E-1,1.573464875E0
4.549849125E0,-8.230227926E-1,-4.825929272E-1,-2.113593042E-1,9.772078623E-1
4.559800125E0,-6.597447042E-1,-1.360723096E-1,-3.765162492E-1,7.717144770E-1
4.569752125E0,-4.213263863E-1,1.511323982E-1,-9.942535329E-1,1.090365541E0
4.579703125E0,1.330555849E-2,1.071718615E-1,-1.899926426E0,1.902993240E0
4.589654125E0,4.662396903E-1,-3.754263282E-2,-2.281550803E0,2.329004716E0
4.599606125E0,8.942206100E-1,-3.057269329E-1,-2.473410813E0,2.647802958E0
4.609557125E0,2.011893589E0,-3.429538161E-1,-1.457854704E0,2.508121503E0
4.619508125E0,3.006759618E0,-2.592795753E-1,-3.375223374E-1,3.036733546E0
4.629460125E0,3.073225503E0,-7.701315111E-1,-7.527559251E-3,3.168260438E0
4.639411125E0,3.035721754E0,-1.448088684E0,-3.792527461E-1,3.384730425E0
4.649363125E0,3.468656618E0,-1.871178006E0,-3.252254967E-1,3.954574249E0
4.659314125E0,3.818462201E0,-2.163014293E0,2.630431357E-1,4.396416280E0
4.669265125E0,3.648948496E0,-2.551022660E0,5.614616337E-1,4.487513889E0
4.679217125E0,3.041663110E0,-2.934484817E0,9.161882338E-1,4.324617497E0
4.689168125E0,2.430032805E0,-3.045331069E0,1.377778547E0,4.132478007E0
4.699120125E0,1.757278484E0,-3.006414925E0,1.829539983E0,3.933671939E0
4.709071125E0,1.314175459E0,-2.409245807E0,2.589711640E0,3.773344521E0
4.719022125E0,7.952716148E-1,-1.715995826E0,3.323854415E0,3.824278598E0
4.728974125E0,4.690251211E-1,-1.158966674E0,4.183507383E0,4.366339696E0
4.738925125E0,7.794692952E-1,-5.781259060E-1,4.830421103E0,4.926943269E0
4.748876125E0,8.383028828E-2,-4.640227550E-1,3.560707872E0,3.591794146E0
4.758828125E0,4.068947272E-1,-1.232382560E-1,3.213180949E0,3.241185400E0
4.768778792E0,1.512327511E-1,1.222436446E-1,2.528564090E0,2.536030601E0
4.778729792E0,-7.301421840E-1,2.693484807E-1,7.698733565E-1,1.094696852E0
4.788681792E0,-6.360413345E-1,6.513307071E-1,9.666695854E-1,1.327866844E0
4.798632792E0,-8.296810902E-1,1.135466130E0,1.010961075E0,1.731963146E0
4.808584792E0,-1.256667801E0,1.353543885E0,7.570369640E-1,1.996096183E0
4.818535792E0,-1.138184866E0,1.672952133E0,1.260191333E0,2.383760857E0
4.828486792E0,-7.297744672E-1,2.058425147E0,1.470112514E0,2.632663226E0
4.838438792E0,-3.869240738E-1,2.278758173E0,1.952484417E0,3.025664298E0
4.848389792E0,3.602400859E-1,2.602257718E0,2.730266717E0,3.788914686E0
4.858340792E0,1.057245441E0,2.872126016E0,2.990201181E0,4.278805777E0
4.868292792E0,1.700842036E0,3.206370404E0,3.297006048E0,4.903460378E0
4.878243792E0,2.393792347E0,3.581868069E0,3.166891466E0,5.346889022E0
4.888195792E0,2.748584290E0,3.724896811E0,2.863486463E0,5.443264330E0
4.898146792E0,2.765499407E0,3.601081434E0,2.549279605E0,5.207168230E0
4.908097792E0,2.471523039E0,3.251394550E0,2.311625665E0,4.692931479E0
4.918049792E0,2.088609059E0,2.814042115E0,2.093606966E0,4.082194380E0
4.928000792E0,1.800104661E0,2.385464011E0,1.799299646E0,3.488308266E0
4.937951792E0,1.525713980E0,1.975785863E0,1.443381675E0,2.883553986E0
4.947903792E0,1.417544437E0,1.632046766E0,1.056393063E0,2.406028924E0
4.957854792E0,1.569127510E0,1.432126955E0,4.914529207E-1,2.180521665E0
4.967806792E0,1.723874218E0,1.109173540E0,-3.278525046E-1,2.075932448E0
4.977757792E0,1.721739546E0,5.559643739E-1,-1.244546815E0,2.195991854E0
4.987708792E0,1.602556773E0,-2.306147701E-1,-2.246008503E0,2.768740793E0
4.997660792E0,1.239561186E0,-1.257796313E0,-3.379397409E0,3.812989687E0
5.007611792E0,7.955435103E-1,-2.376327152E0,-4.608730061E0,5.245971120E0
5.017562792E0,4.852982146E-1,-3.262613602E0,-5.735082428E0,6.615990654E0
5.027514792E0,3.215878342E-1,-3.676973616E0,-6.417104001E0,7.402889805E0
5.037465792E0,2.971809531E-1,-3.647781392E0,-6.663129108E0,7.602099388E0
5.047416792E0,2.874822131E-1,-3.163682806E0,-6.217495261E0,6.982032816E0
5.057368792E0,4.033238509E-2,-2.496595023E0,-5.101969306E0,5.680202832E0
5.067319792E0,-1.770843513E-1,-1.922183268E0,-3.760516587E0,4.227012229E0
5.077271792E0,-5.485901579E-1,-1.585601163E0,-2.576298419E0,3.074474875E0
5.087222792E0,-8.037945163E-1,-1.494641291E0,-1.550161189E0,2.298486007E0
5.097173792E0,-8.027199443E-1,-1.611616010E0,-6.628622934E-1,1.918606758E0
5.107125792E0,-4.986390026E-1,-1.811980795E0,7.534254313E-2,1.880848679E0
5.117076792E0,-3.618035582E-1,-2.063230973E0,7.557172474E-1,2.226866054E0
5.127027792E0,-3.880897893E-1,-2.361663505E0,1.379719677E0,2.762552186E0
5.136979792E0,-2.594510815E-1,-2.507546858E0,1.886198334E0,3.148467923E0
5.146930792E0,-7.635451343E-2,-2.419729865E0,2.410204750E0,3.416139571E0
5.156882792E0,9.943446033E-3,-2.071756214E0,2.931758845E0,3.589914011E0
5.166833792E0,9.062829774E-2,-1.430473362E0,3.226721638E0,3.530750637E0
5.176784792E0,1.955120707E-1,-4.841032630E-1,3.296652876E0,3.337738924E0
5.186736792E0,4.292276192E-1,5.638709790E-1,3.390141960E0,3.463415849E0
5.196687792E0,7.974233902E-1,1.403060446E0,3.094016740E0,3.489613484E0
5.206638792E0,1.266797809E0,2.072840288E0,2.570044237E0,3.536463054E0
5.216590792E0,1.658333509E0,2.537049569E0,2.200992690E0,3.745805569E0
5.226541792E0,1.927662548E0,2.661608126E0,2.048926491E0,3.872743276E0
5.236492792E0,2.157946365E0,2.451355115E0,1.959847815E0,3.808789555E0
5.246444792E0,2.083217780E0,1.896064340E0,1.926561663E0,3.412696316E0
5.256395792E0,1.877967208E0,1.111669716E0,1.922811113E0,2.908568887E0
5.266347792E0,1.689826174E0,2.505853504E-1,1.984250439E0,2.618311540E0
5.276298792E0,1.482448385E0,-5.874194705E-1,2.295198058E0,2.794753831E0
5.286249792E0,1.160800946E0,-1.226915998E0,3.120219283E0,3.548034678E0
5.296201792E0,9.238776878E-1,-1.584488438E0,3.844510378E0,4.259625997E0
5.306152792E0,6.434837437E-1,-1.636276057E0,4.012611980E0,4.380927478E0
5.316103792E0,2.525776429E-1,-1.538719942E0,3.549804862E0,3.877185717E0
5.326055792E0,-1.898543414E-2,-1.408635766E0,2.753278727E0,3.092759110E0
5.336006792E0,1.183078106E-2,-1.001340358E0,1.966473442E0,2.206771460E0
5.345958792E0,1.151495833E-1,-4.718644559E-1,1.399865527E0,1.481735127E0
5.355909792E0,1.508387218E-1,8.274628758E-2,1.036863363E0,1.051039914E0
5.365860792E0,-3.565887921E-3,6.130443084E-1,7.168557751E-1,9.432487699E-1
5.375812792E0,-2.287923391E-1,1.005625198E0,5.287999642E-1,1.158989808E0
5.385763792E0,-3.175368102E-1,1.316458504E0,3.633693695E-1,1.402116228E0
5.395714792E0,-2.933215898E-1,1.466320302E0,2.241283806E-1,1.512073515E0
5.405666792E0,-2.838737684E-1,1.491068058E0,1.586032395E-1,1.526113776E0
5.415617792E0,-4.243128152E-1,1.491518878E0,2.057752132E-1,1.564293249E0
5.425568792E0,-7.948161167E-1,1.255879011E0,-3.414656997E-2,1.486650846E0
5.435520792E0,-1.152541827E0,7.494528329E-1,-6.574597585E-1,1.523904703E0
5.445471792E0,-1.464628995E0,3.879434627E-1,-1.565183855E0,2.178402792E0
5.455423792E0,-1.497938244E0,2.236945903E-1,-2.410043952E0,2.846431117E0
5.465374792E0,-1.197665886E0,2.582492959E-1,-3.003375542E0,3.243664736E0
5.475325792E0,-8.266926514E-1,4.293891120E-1,-3.217483038E0,3.349625777E0
5.485277792E0,-3.947176448E-1,3.995343983E-1,-3.231959574E0,3.280395166E0
5.495228792E0,-2.727227627E-1,5.598779154E-1,-2.924886028E0,2.990451347E0
5.505179792E0,-1.804239520E-1,5.490751845E-1,-2.594323046E0,2.657921825E0
5.515131792E0,-1.425799683E-1,6.093202168E-1,-2.190708461E0,2.278333543E0
5.525082792E0,-1.001179633E-1,4.567464799E-1,-1.724446222E0,1.786716465E0
5.535033792E0,-1.468261432E-2,1.811789006E-1,-1.300734757E0,1.313374387E0
5.544985792E0,5.122778524E-2,-2.753336906E-2,-9.585486799E-1,9.603113788E-1
5.554936792E0,1.171586866E-1,-2.233133519E-1,-7.114073396E-1,7.547816994E-1
5.564888792E0,1.268236773E-1,-4.073369229E-1,-6.669234771E-1,7.917035671E-1
5.574839792E0,1.120910327E-1,-5.187421685E-1,-7.578149360E-1,9.251709649E-1
5.584790792E0,6.060819922E-2,-6.633174992E-1,-8.855426842E-1,1.108083618E0
5.594742792E0,-7.099206850E-2,-8.027151203E-1,-1.022365192E0,1.301776487E0
5.604693792E0,-2.686762154E-1,-9.272637373E-1,-1.068848290E0,1.440292198E0
5.614644792E0,-4.313857169E-1,-9.917327982E-1,-1.121614661E0,1.558090827E0
5.624596792E0,-5.670089603E-1,-8.773507351E-1,-1.195237099E0,1.587398878E0
5.634547792E0,-7.031868853E-1,-6.322407174E-1,-1.222762136E0,1.545751391E0
5.644498792E0,-8.234746362E-1,-3.906302583E-1,-1.243353691E0,1.541632536E0
5.654450792E0,-1.137203411E0,-3.308524185E-1,-1.285677592E0,1.748045134E0
5.664401792E0,-1.586590219E0,-4.773123068E-1,-1.361452829E0,2.144446168E0
5.674353792E0,-2.129741151E0,-8.458938843E-1,-1.411941197E0,2.691637379E0
5.684304792E0,-2.635794716E0,-1.374240689E0,-1.407390894E0,3.288875246E0
5.694255792E0,-3.050873060E0,-1.934171230E0,-1.313810300E0,3.843818710E0
5.704207792E0,-3.227434414E0,-2.354721690E0,-1.144330509E0,4.155783855E0
5.714158792E0,-3.064615478E0,-2.374368335E0,-8.092189783E-1,3.960344477E0
5.724109792E0,-2.724025984E0,-1.958237200E0,6.667580922E-2,3.355511310E0
5.734061792E0,-2.361593338E0,-1.430866295E0,2.296435475E-1,2.770782851E0
5.744012792E0,-1.932529916E0,-9.768849635E-1,2.567243604E-1,2.180569537E0
5.753963792E0,-1.560069442E0,-6.734384447E-1,6.773145640E-1,1.829232358E0
5.763915875E0,-1.157098196E0,-4.929395753E-1,9.172913110E-1,1.556691688E0
5.773866875E0,-7.793016263E-1,-3.585138416E-1,9.898705331E-1,1.309842308E0
5.783817875E0,-3.014320068E-1,-2.112224793E-1,1.106071007E0,1.165705479E0
5.793769875E0,3.476261799E-1,-1.632349652E-1,7.338302422E-1,8.282490200E-1
5.803720875E0,1.216167427E0,-3.214670527E-1,-2.828754294E-1,1.289349753E0
5.813672875E0,2.477001003E0,-3.328778940E-1,-1.624690969E0,2.980933144E0
5.823623875E0,4.140350838E0,-3.362324417E-1,-2.447991797E0,4.821640919E0
5.833574875E0,5.741407362E0,-3.643014157E-1,-2.479314162E0,6.264461088E0
5.843526875E0,6.842279609E0,-4.703985590E-1,-1.844313558E0,7.102081213E0
5.853477875E0,7.372285269E0,-5.227387404E-1,-1.301792810E0,7.504565971E0
5.863428875E0,7.110753347E0,-4.697372389E-1,-1.158962435E0,7.219879511E0
5.873380875E0,6.160710027E0,-3.704912782E-1,-1.208623861E0,6.289068568E0
5.883331875E0,4.547619349E0,-5.014595532E-1,-9.639867367E-1,4.675636198E0
5.893282875E0,2.851552295E0,-6.569802868E-1,-4.820681396E-1,2.965697773E0
5.903234875E0,1.339737732E0,-7.815376747E-1,-4.631681845E-1,1.618710318E0
5.913185875E0,5.605300992E-1,-9.001209623E-1,-2.720759144E-1,1.094731493E0
5.923137875E0,4.757578245E-1,-1.244207384E0,-1.847297685E-1,1.344813225E0
5.933088875E0,4.945652474E-1,-1.480101020E0,-3.193296030E-1,1.592879534E0
5.943039875E0,4.969858485E-1,-1.612657984E0,-2.916696417E-1,1.712522084E0
5.952991875E0,5.890343253E-1,-1.515733953E0,-8.510330021E-3,1.626186729E0
5.962942875E0,4.809112680E-1,-1.257065411E0,5.053480978E-1,1.437659833E0
5.972893875E0,2.584254433E-1,-7.812143236E-1,1.227247535E0,1.477570994E0
5.982845875E0,6.902404189E-2,-1.786020327E-1,1.673296680E0,1.684216371E0
5.992796875E0,-3.554604256E-1,3.337637472E-1,1.832427046E0,1.896190716E0
6.002747875E0,-6.523760431E-1,8.645774925E-1,1.553589119E0,1.893865859E0
6.012699875E0,-9.760394561E-1,1.275256684E0,1.487064762E0,2.188674082E0
6.022650875E0,-1.246939642E0,1.592893226E0,1.378628148E0,2.448016108E0
6.032601875E0,-8.876288246E-1,2.059296382E0,1.273862708E0,2.579013904E0
6.042553875E0,4.372401685E-3,2.685774668E0,1.246865236E0,2.961093988E0
6.052504875E0,8.725884703E-1,3.343405750E0,1.182069316E0,3.651994047E0
6.062455875E0,1.318195566E0,3.787308236E0,1.128648861E0,4.165956250E0
6.072407875E0,1.613502322E0,4.016571130E0,9.737119719E-1,4.436704677E0
6.082358875E0,2.048985256E0,4.095186945E0,8.834932351E-1,4.663631309E0
6.092310875E0,2.553759449E0,3.966649357E0,8.585946214E-1,4.795120350E0
6.102261875E0,2.820978374E0,3.732917436E0,8.477290329E-1,4.755127347E0
6.112212875E0,2.905276805E0,3.422602778E0,7.741769072E-1,4.555677005E0
6.122164875E0,2.914012545E0,3.081696072E0,6.192034730E-1,4.286225932E0
6.132115875E0,2.661369560E0,2.721295919E0,4.629451132E-1,3.834404463E0
6.142066875E0,2.546240222E0,2.301465835E0,2.036669996E-1,3.438250210E0
6.152018875E0,2.475857288E0,1.785147922E0,-2.307691365E-1,3.061025450E0
6.161969875E0,2.212958724E0,1.188813202E0,-7.100569251E-1,2.610487307E0
6.171920875E0,1.754361016E0,5.673354542E-1,-9.506286263E-1,2.074450982E0
6.181872875E0,1.151244183E0,5.546317935E-2,-9.185398377E-1,1.473823181E0
6.191823875E0,4.258312275E-1,-3.002849293E-1,-8.251833388E-1,9.759256200E-1
6.201774875E0,-2.620967638E-1,-5.797876847E-1,-7.973076153E-1,1.020072501E0
6.211726875E0,-7.986658504E-1,-6.576164639E-1,-9.948040482E-1,1.435256649E0
6.221677875E0,-1.233886171E0,-6.584584630E-1,-1.409397950E0,1.985559169E0
6.231629875E0,-1.599885034E0,-5.919276738E-1,-2.160912512E0,2.753098868E0
6.241580875E0,-2.024461010E0,-5.482729465E-1,-3.268078995E0,3.883218500E0
6.251531875E0,-2.490934918E0,-6.151954991E-1,-4.590934353E0,5.259268057E0
6.261483875E0,-3.044737576E0,-1.227605969E0,-5.623257937E0,6.511410996E0
6.271434875E0,-3.620134879E0,-1.959214854E0,-6.001869829E0,7.277797801E0
6.281385875E0,-3.992791674E0,-2.247622334E0,-5.547014923E0,7.194690130E0
6.291337875E0,-4.139086086E0,-2.149000856E0,-4.258243277E0,6.315288918E0
6.301288875E0,-3.574556710E0,-1.882857819E0,-2.612766334E0,4.811357101E0
6.311239875E0,-2.231242529E0,-1.636925098E0,-1.212898322E0,3.021438290E0
6.321191875E0,-8.827286386E-1,-1.690564531E0,-5.537864323E-1,1.985924897E0
6.331142875E0,7.308120556E-2,-1.815870363E0,-1.406008320E-1,1.822771140E0
6.341093875E0,6.867254383E-1,-2.069439547E0,5.374713850E-1,2.245673030E0
6.351045875E0,1.122933646E0,-2.353648726E0,1.387719837E0,2.954049534E0
6.360996875E0,1.565279019E0,-2.484950877E0,2.141515689E0,3.634717144E0
6.370948875E0,1.883660057E0,-2.557066342E0,2.670680666E0,4.149614284E0
6.380899875E0,1.745859018E0,-2.665368471E0,2.866154255E0,4.285679994E0
6.390850875E0,1.281803811E0,-2.539352202E0,3.008899992E0,4.140629152E0
6.400802875E0,1.033899848E0,-2.463460606E0,3.090296742E0,4.085036230E0
6.410753875E0,1.085332980E0,-2.119106966E0,2.856920332E0,3.718945522E0
6.420704875E0,1.194895768E0,-1.471762306E0,2.609786593E0,3.225654390E0
6.430656875E0,1.493880569E0,-4.289295208E-1,2.247252352E0,2.732362132E0
6.440607875E0,1.591438731E0,5.582968283E-1,1.965522830E0,2.589913624E0
6.450558875E0,1.454397245E0,1.445017726E0,1.812369050E0,2.736426346E0
6.460510875E0,1.421127173E0,2.009026115E0,1.704665823E0,2.993605508E0
6.470461875E0,1.558449909E0,2.348956921E0,1.595178025E0,3.238974786E0
6.480412875E0,1.711542879E0,2.505965186E0,1.363794200E0,3.327036994E0
6.490364875E0,1.922721504E0,2.361048378E0,1.154400584E0,3.256385747E0
6.500315875E0,2.139614321E0,1.831941435E0,9.749284852E-1,2.980678516E0
6.510266875E0,2.244043838E0,9.631334817E-1,7.378309071E-1,2.551029851E0
6.520218875E0,2.088934456E0,-1.574222481E-1,6.154814279E-1,2.183402463E0
6.530169875E0,1.562998458E0,-1.297053934E0,7.729421946E-1,2.173189528E0
6.540121875E0,6.623179176E-1,-2.053932146E0,9.886285114E-1,2.373749907E0
6.550072875E0,-3.540003759E-1,-2.137627437E0,8.686881582E-1,2.334392093E0
6.560023875E0,-1.054144882E0,-1.792638205E0,6.822613815E-1,2.188664835E0
6.569975875E0,-1.368469487E0,-1.399860849E0,3.956974554E-1,1.997221974E0
6.579926875E0,-1.549896602E0,-9.143712115E-1,1.025156506E-1,1.802432703E0
6.589877875E0,-1.647742447E0,-3.244000161E-1,-2.324467758E-1,1.695382566E0
6.599829875E0,-1.725056379E0,4.080917984E-1,-7.309183288E-1,1.917446226E0
6.609780875E0,-1.821770203E0,1.096290954E0,-1.149269067E0,2.416923648E0
6.619731875E0,-1.896029988E0,1.687537428E0,-1.400739101E0,2.899100259E0
6.629683875E0,-1.805459395E0,2.128825039E0,-1.542861525E0,3.189357515E0
6.639634875E0,-1.666946165E0,2.423051668E0,-1.512558914E0,3.307222909E0
6.649585875E0,-1.466343399E0,2.574273528E0,-1.402917774E0,3.277991068E0
6.659537875E0,-1.171054842E0,2.501701396E0,-1.199855669E0,3.011566527E0
6.669488875E0,-8.474496822E-1,2.161845435E0,-9.300464272E-1,2.501346239E0
6.679439875E0,-7.909157315E-1,1.436998270E0,-6.679613578E-1,1.771068632E0
6.689391875E0,-9.267333949E-1,7.721172255E-1,-3.671034014E-1,1.260858716E0
6.699342875E0,-9.391245219E-1,4.576253164E-1,-1.651499283E-1,1.057662657E0
6.709293875E0,-8.038491878E-1,3.036342144E-1,-5.372304797E-2,8.609607533E-1
6.719245875E0,-6.578532761E-1,2.057676119E-1,6.928950548E-3,6.893179625E-1
6.729196875E0,-4.003199717E-1,1.241837507E-1,6.924156288E-2,4.248200534E-1
6.739148875E0,-1.932859261E-1,4.716773450E-2,1.806356943E-1,2.687256937E-1
6.749099875E0,-4.449376624E-2,-7.370766163E-2,3.789521992E-1,3.886094233E-1
6.759050875E0,8.749243598E-2,-1.814256531E-1,5.222230160E-1,5.597205306E-1
6.769003917E0,1.688493886E-1,-2.464613092E-1,6.286060882E-1,6.959877205E-1
6.778954917E0,2.680035846E-1,-2.275952679E-1,5.889239591E-1,6.858986492E-1
6.788905917E0,3.050233301E-1,-2.027422625E-1,4.457285714E-1,5.769034722E-1
6.798857917E0,2.668115566E-1,-1.573491579E-1,1.605920237E-1,3.489082434E-1
6.808808917E0,7.652835846E-2,-1.114531928E-1,-2.887653663E-1,3.188476762E-1
6.818759917E0,-2.574861247E-1,-9.377647519E-2,-8.545074908E-1,8.973718201E-1
6.828711917E0,-7.597839128E-1,-8.991146564E-2,-1.431225899E0,1.622887316E0
6.838662917E0,-1.257160136E0,-8.810643017E-2,-2.039951454E0,2.397835750E0
6.848613917E0,-1.656050171E0,1.001803458E-2,-2.707627468E0,3.173932739E0
6.858565917E0,-1.951570351E0,7.438710809E-2,-3.318739856E0,3.850739475E0
6.868516917E0,-2.163153457E0,1.974604726E-2,-3.800102529E0,4.372688191E0
6.878467917E0,-2.227292004E0,-9.948218822E-2,-4.100228414E0,4.667183243E0
6.888419917E0,-2.134069553E0,-1.683430928E-1,-4.038693486E0,4.570955844E0
6.898370917E0,-1.799533827E0,-1.608978331E-2,-3.517575594E0,3.951192090E0
6.908322917E0,-1.489144763E0,1.350010997E-1,-2.791429762E0,3.166679260E0
6.918273917E0,-1.298908964E0,2.539627022E-1,-2.075139998E0,2.461273564E0
6.928224917E0,-1.211047824E0,1.955642205E-1,-1.430113174E0,1.884172467E0
6.938176917E0,-1.363631355E0,-1.404688311E-1,-7.741801963E-1,1.574349688E0
6.948127917E0,-1.570746896E0,-6.462956697E-1,-1.745868959E-2,1.698601987E0
6.958078917E0,-1.815167966E0,-1.130486056E0,4.696384940E-1,2.189382055E0
6.968030917E0,-2.051429830E0,-1.498288785E0,5.743831033E-1,2.604448038E0
6.977981917E0,-2.200378001E0,-1.755565104E0,6.290054530E-1,2.884323152E0
6.987932917E0,-2.173116674E0,-1.895662637E0,6.435066209E-1,2.954669809E0
6.997884917E0,-1.978142437E0,-2.004172341E0,4.965689421E-1,2.859429137E0
7.007835917E0,-1.836287816E0,-2.049895813E0,3.462487221E-1,2.773790541E0
7.017786917E0,-1.727989927E0,-1.987466846E0,2.291067731E-1,2.643570231E0
7.027738917E0,-1.541408199E0,-1.755893133E0,1.000294876E-1,2.338611945E0
7.037689917E0,-1.414514849E0,-1.301438177E0,-1.456553113E-1,1.927643394E0
7.047640917E0,-1.335768934E0,-6.871963584E-1,-8.725846696E-1,1.737216591E0
7.057592917E0,-1.211474963E0,-2.447667861E-1,-2.148664641E0,2.478778350E0
7.067543917E0,-6.203981323E-1,-3.528923285E-1,-2.970876718E0,3.055410825E0
7.077494917E0,5.624376071E-1,-3.244742757E-1,-2.362128943E0,2.449749530E0
7.087446917E0,2.076262078E0,-7.091386199E-2,-1.215763750E0,2.407067612E0
7.097397917E0,3.590495635E0,6.858842432E-2,-2.468799698E-1,3.599626786E0
7.107348917E0,4.795580469E0,-1.838715434E-2,4.194476759E-1,4.813924228E0
7.117300917E0,5.326717565E0,-4.420190978E-1,8.807253094E-1,5.417100513E0
7.127251917E0,5.354908161E0,-1.017957560E0,1.035773734E0,5.548342657E0
7.137203917E0,4.939178730E0,-1.539167839E0,8.323394537E-1,5.239972626E0
7.147154917E0,3.970903206E0,-2.098118386E0,3.740472624E-1,4.506671098E0
7.157105917E0,2.641134101E0,-2.332304050E0,2.301940629E-1,3.531036792E0
7.167057917E0,1.578771176E0,-2.728434200E0,5.320521855E-1,3.196865830E0
7.177008917E0,1.074431577E0,-2.668369262E0,1.376893863E0,3.189111858E0
7.186959917E0,1.065818848E0,-1.927045813E0,1.632242940E0,2.741111526E0
7.196911917E0,1.012356001E0,-1.358522204E0,1.925221189E0,2.564551399E0
7.206862917E0,5.425013792E-1,-1.220037333E0,2.653892140E0,2.970848757E0
7.216813917E0,-2.885425508E-2,-1.110965711E0,2.479819069E0,2.717458370E0
7.226765917E0,-4.600892600E-1,-7.765073150E-1,1.694690326E0,1.920057562E0
7.236716917E0,-7.249604546E-1,-3.463229817E-1,9.473378134E-1,1.242157881E0
7.246667917E0,-7.627134410E-1,1.578952879E-1,5.175288713E-1,9.351464311E-1
7.256619917E0,-7.069038141E-1,6.022696441E-1,5.107230046E-1,1.059848911E0
7.266570917E0,-6.604896395E-1,9.678732347E-1,9.882931736E-1,1.532888959E0
7.276521917E0,-6.071861292E-1,1.454252234E0,1.774065987E0,2.372937985E0
7.286473917E0,-5.364506073E-1,1.959363958E0,2.510851704E0,3.229746531E0
7.296424917E0,-4.588479692E-1,2.429545001E0,3.045229035E0,3.922582089E0
7.306375917E0,-3.793607734E-1,2.914232401E0,3.421130157E0,4.510077231E0
7.316327917E0,-1.135266155E-2,3.379801160E0,3.565547028E0,4.912871906E0
7.326278917E0,4.331420012E-1,3.701155361E0,3.640323561E0,5.209425940E0
7.336229917E0,8.871208477E-1,3.990179138E0,3.541987427E0,5.408714069E0
7.346181917E0,1.317188675E0,3.945496470E0,3.072314215E0,5.171174241E0
7.356132917E0,1.328765724E0,3.620329884E0,2.678385834E0,4.695333587E0
7.366083917E0,1.082701587E0,3.319270198E0,2.361070890E0,4.214789807E0
7.376035917E0,7.692244618E-1,3.033607401E0,2.093194738E0,3.765095530E0
7.385986917E0,5.014613074E-1,2.679865472E0,1.834300786E0,3.286000878E0
7.395937917E0,4.104239604E-1,2.196160989E0,1.530217798E0,2.707976630E0
7.405889917E0,4.049872193E-1,1.632342635E0,1.221390671E0,2.078545717E0
7.415840917E0,4.507531569E-1,1.079587213E0,8.769244730E-1,1.462081903E0
7.425792917E0,5.579059419E-1,5.709595585E-1,4.426418263E-1,9.127900327E-1
7.435743917E0,7.465083213E-1,1.878774709E-1,-2.779930043E-1,8.184453117E-1
7.445694917E0,1.170020908E0,1.464961410E-2,-1.391950444E0,1.818430525E0
7.455646917E0,1.844234329E0,-1.107450950E-1,-3.113243555E0,3.620186482E0
7.465597917E0,2.536990512E0,-3.128698915E-1,-5.732025504E0,6.276171190E0
7.475548917E0,2.897355874E0,-7.475302684E-1,-8.634944712E0,9.138694805E0
7.485500917E0,2.386518557E0,-1.505803041E0,-9.955200398E0,1.034741169E1
7.495451917E0,9.128116129E-1,-2.581286679E0,-9.139099832E0,9.540409409E0
7.505402917E0,-7.814824185E-1,-3.324006443E0,-6.838874191E0,7.643947528E0
7.515354917E0,-1.711655292E0,-3.408924387E0,-4.371930107E0,5.802094636E0
7.525305917E0,-2.011775330E0,-2.900014896E0,-2.456701517E0,4.300314955E0
7.535256917E0,-2.014814274E0,-1.983620548E0,-1.229026258E0,3.082974631E0
7.545208917E0,-1.646713483E0,-9.157207489E-1,-5.528662267E-1,1.963637149E0
7.555159917E0,-1.126728270E0,-1.368172449E-1,-4.013996601E-2,1.135714211E0
7.565110917E0,-7.554450595E-1,1.652528393E-1,6.358785626E-1,1.001172955E0
7.575062917E0,-5.510816565E-1,-1.744505095E-1,1.118923333E0,1.259409941E0
7.585013917E0,-5.683165805E-1,-9.456625861E-1,1.522091922E0,1.879900339E0
7.594964917E0,-2.698152347E-1,-1.933415185E0,2.379713860E0,3.077975404E0
7.604916917E0,3.224898038E-1,-2.765033677E0,3.067039149E0,4.141997109E0
7.614867917E0,6.252595805E-1,-2.903413298E0,3.190245538E0,4.358718265E0
7.624818917E0,9.525918290E-1,-3.189775422E0,3.276897473E0,4.671204928E0
7.634770917E0,1.331159281E0,-3.414775695E0,3.301723874E0,4.932956377E0
7.644721917E0,1.480318391E0,-3.370997592E0,3.184575200E0,4.867903708E0
7.654672917E0,1.427031545E0,-2.897644435E0,3.066527810E0,4.453802320E0
7.664624917E0,8.865498671E-1,-1.899134129E0,2.995334451E0,3.655777562E0
7.674575917E0,3.963951744E-1,-6.344246525E-1,2.880601555E0,2.976153406E0
7.684526917E0,1.851762034E-1,4.178396916E-1,2.807609300E0,2.844565031E0
7.694478917E0,1.353591594E-1,1.254808386E0,2.758082799E0,3.033131536E0
7.704429917E0,2.684124146E-1,1.906917357E0,2.696050273E0,3.313165572E0
7.714380917E0,5.410169173E-1,2.305879313E0,2.563524300E0,3.490191334E0
7.724332917E0,6.401582859E-1,2.316708357E0,2.400991877E0,3.397308087E0
7.734283917E0,6.535840778E-1,2.085914662E0,2.280860978E0,3.159199095E0
7.744234917E0,5.351612232E-1,1.627591188E0,2.182959731E0,2.775025008E0
7.754186917E0,4.458206285E-1,9.623891312E-1,2.133294504E0,2.382413548E0
7.764137292E0,3.248236834E-1,1.979954928E-1,2.214291305E0,2.246730652E0
7.774089292E0,8.490372743E-2,-6.169929332E-1,2.673601935E0,2.745184189E0
7.784040292E0,-3.173309516E-1,-1.324220683E0,3.005701565E0,3.299772908E0
7.793991292E0,-6.057495414E-1,-1.621967336E0,2.821338855E0,3.310236167E0
7.803943292E0,-7.760427538E-1,-1.780169018E0,2.523914384E0,3.184554585E0
7.813894292E0,-8.981861917E-1,-1.798638033E0,2.263827893E0,3.027664766E0
7.823845292E0,-1.033089570E0,-1.378966409E0,2.079161128E0,2.700320983E0
7.833797292E0,-1.151463381E0,-5.643346632E-1,1.812970290E0,2.220631172E0
7.843748292E0,-1.005693830E0,3.540904230E-1,1.524864964E0,1.860648614E0
7.853699292E0,-6.614444167E-1,1.082059416E0,1.302454277E0,1.817896707E0
7.863651292E0,-1.827115106E-1,1.710898808E0,1.219461236E0,2.108943796E0
7.873602292E0,3.810452101E-1,2.156519791E0,1.124798323E0,2.461898521E0
7.883553292E0,7.163536455E-1,2.454751178E0,1.042680173E0,2.761548087E0
7.893505292E0,9.079056528E-1,2.428666164E0,8.957606205E-1,2.743191408E0
7.903456292E0,1.147208581E0,2.149283862E0,6.961495420E-1,2.533798104E0
7.913407292E0,1.403996439E0,1.788762671E0,3.820886822E-1,2.305833830E0
7.923359292E0,1.473870227E0,1.434364684E0,3.395039588E-5,2.056622351E0
7.933310292E0,1.331856562E0,1.010487158E0,-3.390437829E-1,1.705836125E0
7.943261292E0,1.055628028E0,6.356414580E-1,-6.156007111E-1,1.377445038E0
7.953213292E0,6.781604368E-1,3.968534499E-1,-8.310027802E-1,1.143660727E0
7.963164292E0,1.893636503E-1,2.935992229E-1,-9.527903420E-1,1.014824385E0
7.973115292E0,-2.865902569E-1,2.672692108E-1,-1.105417289E0,1.172823170E0
7.983067292E0,-6.947147814E-1,2.965848112E-1,-1.315005471E0,1.516519227E0
7.993018292E0,-9.836064110E-1,2.738730562E-1,-1.599740900E0,1.897803723E0
8.002969292E0,-1.026652516E0,1.967266470E-1,-1.878570641E0,2.149824275E0
8.012921292E0,-8.198991369E-1,1.392222047E-1,-2.190339502E0,2.342905151E0
8.022872292E0,-7.053600030E-1,1.228786522E-1,-2.523322061E0,2.622934639E0
8.032823292E0,-7.239681090E-1,8.657504439E-2,-2.875426185E0,2.966428965E0
8.042775292E0,-8.592403002E-1,3.535051167E-2,-3.133039888E0,3.248920204E0
8.052726292E0,-1.182443099E0,-1.380808282E-1,-3.293306222E0,3.501871481E0
8.062677292E0,-1.558417896E0,-4.085566521E-1,-3.399547791E0,3.761982199E0
8.072629292E0,-1.902154362E0,-6.720392060E-1,-3.374877804E0,3.931873358E0
8.082580292E0,-2.147781419E0,-9.265170479E-1,-3.290727600E0,4.037361391E0
8.092531292E0,-2.161247849E0,-1.124583877E0,-3.032302303E0,3.889799277E0
8.102483292E0,-2.099632084E0,-1.325278444E0,-2.395391853E0,3.450031879E0
8.112434292E0,-1.856541402E0,-1.435851631E0,-2.191373289E0,3.211001834E0
8.122385292E0,-1.647187839E0,-1.231286792E0,-2.125347846E0,2.957431048E0
8.132337292E0,-1.692242097E0,-8.486718965E-1,-1.784571387E0,2.601657613E0
8.142288292E0,-1.855798367E0,-5.016583586E-1,-1.584804187E0,2.491435931E0
8.152239292E0,-2.035900649E0,-2.952259183E-1,-1.485788607E0,2.537640160E0
8.162191292E0,-2.268347059E0,-2.585802484E-1,-1.313323812E0,2.633834004E0
8.172142292E0,-2.455789059E0,-4.062575269E-1,-1.087119012E0,2.716205593E0
8.182093292E0,-2.663811357E0,-7.371339190E-1,-8.264606631E-1,2.884838746E0
8.192045292E0,-2.895599663E0,-1.199037058E0,-6.733587764E-1,3.205557568E0
8.201996292E0,-3.116369476E0,-1.643820720E0,-6.377218974E-1,3.580585775E0
8.211947292E0,-3.303563115E0,-1.894423027E0,-5.522588472E-1,3.848032965E0
8.221899292E0,-3.375307574E0,-1.959549315E0,-4.333448265E-1,3.926871844E0
8.231850292E0,-3.213336777E0,-1.886629273E0,-3.773355172E-1,3.745301770E0
8.241801292E0,-2.909064339E0,-1.824525996E0,-3.063573358E-1,3.447521611E0
8.251753292E0,-2.497433806E0,-1.903927091E0,-1.442526374E-1,3.143711629E0
8.261704292E0,-2.096565219E0,-2.154982558E0,-3.893258907E-2,3.006834097E0
8.271655292E0,-1.810605091E0,-2.466014670E0,2.786841452E-2,3.059460049E0
8.281607292E0,-1.557878929E0,-2.704134926E0,-3.373083293E-2,3.120972640E0
8.291558292E0,-1.008631105E0,-3.014463617E0,-1.579239392E-1,3.182651030E0
8.301509292E0,2.011427566E-1,-3.013557884E0,-2.310176432E-1,3.029085452E0
8.311461292E0,1.762883771E0,-2.795504102E0,-3.491512434E-1,3.323327996E0
8.321412292E0,3.508089656E0,-2.448595229E0,-4.355859911E-1,4.300237992E0
8.331364292E0,5.113324599E0,-1.923609989E0,-2.790547856E-1,5.470304874E0
8.341315292E0,6.145259929E0,-1.179420819E0,-1.722706676E-2,6.257439559E0
8.351266292E0,6.413402129E0,-3.088499308E-1,1.809457429E-1,6.423383572E0
8.361218292E0,5.906715750E0,2.933752745E-1,3.658322167E-1,5.925301107E0
8.371169292E0,5.079846951E0,6.039957422E-1,4.863116102E-1,5.138691943E0
8.381120292E0,4.192287270E0,6.480048108E-1,5.126522934E-1,4.272937533E0
8.391072292E0,3.326288611E0,6.414319557E-1,4.071065426E-1,3.411944697E0
8.401023292E0,2.521587192E0,4.745395571E-1,4.691130486E-1,2.608382029E0
8.410974292E0,1.732597241E0,1.051504791E-2,8.287899014E-1,1.920650011E0
8.420926292E0,1.630977018E0,2.802658170E-1,1.612367377E0,2.310489888E0
8.430877292E0,1.800633396E0,5.661408681E-1,1.708691338E0,2.546060132E0
8.440828292E0,1.479127897E0,5.609959030E-1,1.695564485E0,2.318938262E0
8.450780292E0,1.024232134E0,3.966721863E-1,2.041251875E0,2.317996873E0
8.460731292E0,9.193885611E-1,4.891429782E-2,2.329659062E0,2.504990875E0
8.470682292E0,1.272400904E0,-1.767870569E-1,3.015558508E0,3.277781390E0
8.480634292E0,1.020199602E0,-4.176712918E-1,3.753195288E0,3.911742758E0
8.490585292E0,3.656701027E-1,-5.194847649E-1,3.405364894E0,3.464114476E0
8.500536292E0,-2.309382673E-1,-5.113419324E-1,2.692522355E0,2.750359920E0
8.510488292E0,-7.592794443E-1,-4.583082712E-1,2.097591259E0,2.277375866E0
8.520439292E0,-1.217153487E0,-3.214384013E-1,1.574745222E0,2.016087243E0
8.530390292E0,-1.597547317E0,-6.490409374E-4,1.375308683E0,2.107992368E0
8.540342292E0,-1.577130594E0,5.076581866E-1,1.723450734E0,2.390677765E0
8.550293292E0,-1.517053231E0,1.092975583E0,2.325477134E0,2.983938677E0
8.560244292E0,-1.307951536E0,1.729668955E0,2.720022103E0,3.478650910E0
8.570196292E0,-9.000396860E-1,2.389768732E0,3.045564080E0,3.974484444E0
8.580147292E0,-1.438353655E-1,3.087677774E0,3.107976675E0,4.383373320E0
8.590098292E0,3.743614771E-1,3.546909320E0,2.990837650E0,4.654655958E0
8.600050292E0,8.548524034E-1,3.684870281E0,2.864447452E0,4.744902615E0
8.610001292E0,1.576266522E0,3.769528608E0,2.807829448E0,4.957607112E0
8.619952292E0,2.067498271E0,3.730880266E0,2.602626092E0,4.996766879E0
8.629904292E0,2.212971004E0,3.455768185E0,2.257547106E0,4.683598333E0
8.639855292E0,2.078979864E0,3.042812673E0,1.874283170E0,4.134465339E0
8.649806292E0,1.771833958E0,2.471312247E0,1.399017973E0,3.347242311E0
8.659758292E0,1.380620440E0,1.788736943E0,8.626020107E-1,2.418630786E0
8.669709292E0,1.143342768E0,1.156270523E0,2.979475048E-1,1.653168752E0
8.679660292E0,1.014724781E0,5.789053398E-1,-2.707766631E-1,1.199215483E0
8.689612292E0,1.074447292E0,-2.000566363E-2,-7.601853973E-1,1.316327865E0
8.699563292E0,1.308204282E0,-4.115562737E-1,-1.505801580E0,2.036716821E0
8.709514292E0,1.515154786E0,-7.228895169E-1,-2.531699367E0,3.037723648E0
8.719466292E0,1.334718189E0,-1.136332687E0,-4.196945454E0,4.548304713E0
8.729417292E0,1.028732298E0,-1.514402542E0,-6.182442373E0,6.447813497E0
8.739368292E0,4.171421188E-1,-1.922343482E0,-7.577679244E0,7.828833549E0
8.749320292E0,-7.572237094E-1,-2.505122017E0,-8.072227389E0,8.485863485E0
8.759271292E0,-2.232555960E0,-2.830261706E0,-7.026725349E0,7.897439875E0
8.769221750E0,-3.081261332E0,-2.548156355E0,-4.971306256E0,6.379745927E0
8.779173750E0,-3.350891941E0,-1.891737401E0,-3.173872164E0,4.988046883E0
8.789124750E0,-3.268794694E0,-1.118374718E0,-2.182488445E0,4.086445469E0
8.799075750E0,-2.941814009E0,-4.137495643E-1,-1.771882929E0,3.459050083E0
8.809027750E0,-2.683093428E0,3.105748594E-2,-1.538645975E0,3.093119193E0
8.818978750E0,-2.550135053E0,-5.509889781E-2,-1.254357273E0,2.842470201E0
8.828929750E0,-2.318924159E0,-6.596185505E-1,-8.212810533E-1,2.546960631E0
8.838881750E0,-1.868393562E0,-1.471240734E0,7.631098822E-2,2.379341751E0
8.848832750E0,-9.925514084E-1,-2.174417533E0,1.510870385E0,2.827716256E0
8.858783750E0,-4.308294274E-2,-2.725105965E0,2.672933013E0,3.817411368E0
8.868735750E0,7.261205421E-1,-3.243692012E0,3.320056064E0,4.698038014E0
8.878686750E0,1.269359767E0,-3.813076331E0,3.606146293E0,5.399547797E0
8.888637750E0,1.380917917E0,-4.487243339E0,4.034930803E0,6.190553582E0
8.898589750E0,1.180036970E0,-4.383515487E0,3.984552362E0,6.040227877E0
8.908540750E0,6.334553303E-1,-3.208100595E0,3.319447954E0,4.659604039E0
8.918491750E0,1.951834754E-1,-1.534874813E0,2.789710681E0,3.190050621E0
8.928443750E0,8.204521556E-2,1.455968392E-1,2.429275006E0,2.435016819E0
8.938394750E0,3.658589678E-1,1.614432029E0,2.296495117E0,2.830924475E0
8.948345750E0,8.925313494E-1,2.857316188E0,2.191218192E0,3.709758102E0
8.958297750E0,1.547463576E0,3.794284549E0,2.045221549E0,4.579756538E0
8.968248750E0,2.126195984E0,4.353295907E0,1.845251598E0,5.184288580E0
8.978199750E0,2.475698828E0,4.562049692E0,1.679560217E0,5.455483902E0
8.988151750E0,2.678852442E0,4.360622469E0,1.636043923E0,5.372887347E0
8.998102750E0,2.774720466E0,3.643552685E0,1.556279861E0,4.836998744E0
9.008053750E0,2.504255168E0,2.508709869E0,1.595785843E0,3.887345059E0
9.018005750E0,2.188723185E0,1.306482570E0,1.678468981E0,3.051993448E0
9.027956750E0,2.154008704E0,1.466908532E-1,1.802068595E0,2.812245175E0
9.037907750E0,2.316110917E0,-7.443663400E-1,1.993483046E0,3.145222677E0
9.047859750E0,2.359755558E0,-1.873983500E0,2.528088126E0,3.933381500E0
9.057810750E0,1.993756257E0,-2.805208726E0,3.342457917E0,4.797529045E0
9.067761750E0,1.283151887E0,-3.029051251E0,3.582681416E0,4.863870514E0
9.077713750E0,4.554724447E-1,-2.794305423E0,3.518826313E0,4.516385343E0
9.087664750E0,-1.274133781E-1,-2.380283378E0,3.253307759E0,4.033112260E0
9.097615750E0,-4.251676416E-1,-1.628677601E0,2.821685010E0,3.285614790E0
9.107567750E0,-4.938684055E-1,-6.657025784E-1,2.313566648E0,2.457571272E0
9.117518750E0,-4.291054489E-1,2.340581954E-1,1.700806514E0,1.769648983E0
9.127469750E0,-3.825419511E-1,9.283899111E-1,9.686648747E-1,1.395190959E0
9.137421750E0,-3.530241832E-1,1.404978333E0,1.596921372E-1,1.457426419E0
9.147372750E0,-3.258646705E-1,1.715067873E0,-6.089266992E-1,1.848901652E0
9.157323750E0,-4.280414384E-1,1.916743019E0,-1.505858590E0,2.474819865E0
9.167275750E0,-6.903265192E-1,2.044539764E0,-2.701824691E0,3.457824491E0
9.177226750E0,-1.057602267E0,1.893264109E0,-3.779556583E0,4.357524470E0
9.187177750E0,-1.521252116E0,1.358411692E0,-4.475618489E0,4.918399251E0
9.197129750E0,-1.867961453E0,6.889054996E-1,-4.672623464E0,5.079102363E0
9.207080750E0,-1.906439201E0,2.629855406E-1,-4.394366750E0,4.797304551E0
9.217031750E0,-1.641689702E0,7.782936394E-2,-3.771033681E0,4.113623404E0
9.226983750E0,-1.211528319E0,9.950323820E-2,-3.016896644E0,3.252593906E0
9.236934750E0,-8.513331105E-1,2.528178173E-1,-2.291094629E0,2.457193422E0
9.246885750E0,-6.915918566E-1,3.844579375E-1,-1.643759909E0,1.824295436E0
9.256837750E0,-6.756712040E-1,3.837042314E-1,-1.062731445E0,1.316494830E0
9.266788750E0,-6.541100349E-1,2.939857239E-1,-6.182390479E-1,9.468405694E-1
9.276739750E0,-6.270960447E-1,1.068947035E-1,-2.792167535E-1,6.947214711E-1
9.286690750E0,-5.713524548E-1,-1.530146170E-1,-7.748554766E-2,5.965409548E-1
9.296642750E0,-6.060439488E-1,-4.346375728E-1,2.096226811E-3,7.457905079E-1
9.306593750E0,-7.460238795E-1,-7.246372497E-1,-2.636684954E-2,1.040358584E0
9.316545750E0,-8.199533699E-1,-9.615716904E-1,-1.603605471E-1,1.273836390E0
9.326496750E0,-9.446701674E-1,-1.067467690E0,-2.965842265E-1,1.455970878E0
9.336447750E0,-1.153001491E0,-1.075000073E0,-4.135630381E-1,1.629745987E0
9.346399750E0,-1.327336518E0,-1.111472665E0,-5.455944101E-1,1.815176845E0
9.356350750E0,-1.399217509E0,-1.133523100E0,-6.999900663E-1,1.932011995E0
9.366301750E0,-1.420210914E0,-1.108904568E0,-8.739805461E-1,2.002625870E0
9.376252750E0,-1.431022123E0,-9.669306636E-1,-1.140621620E0,2.069733535E0
9.386204750E0,-1.492182683E0,-5.812149900E-1,-1.536766972E0,2.219475783E0
9.396155750E0,-1.621572357E0,-1.370119572E-1,-1.967140755E0,2.553020159E0
9.406106750E0,-1.796307333E0,1.369686878E-1,-2.237839943E0,2.872874530E0
9.416058750E0,-2.059386868E0,9.926584125E-2,-2.264006233E0,3.062131970E0
9.426009750E0,-2.399895671E0,-3.099024296E-1,-2.222478284E0,3.285566689E0
9.435960750E0,-2.819659535E0,-1.167867891E0,-2.070035963E0,3.687742425E0
9.445912750E0,-3.188254268E0,-2.038586714E0,-1.800612638E0,4.190824136E0
9.455863750E0,-3.362402769E0,-2.538218427E0,-1.574911868E0,4.497627437E0
9.465814750E0,-3.489445809E0,-2.692930491E0,-1.374980362E0,4.617215359E0
9.475766750E0,-3.414346510E0,-2.523464733E0,-1.234015687E0,4.421360770E0
9.485717750E0,-3.323694494E0,-2.143950616E0,-1.076496960E0,4.099062702E0
9.495668750E0,-3.108649982E0,-1.686913530E0,-8.980335063E-1,3.649088399E0
9.505620750E0,-2.679374014E0,-1.315312450E0,-6.216110641E-1,3.048850974E0
9.515571750E0,-2.244642009E0,-1.222692554E0,-2.779421701E-1,2.571117788E0
9.525522750E0,-1.988431344E0,-1.196063749E0,5.056025248E-2,2.320987730E0
9.535474750E0,-1.783452522E0,-1.080109370E0,2.637632020E-1,2.101644636E0
9.545425750E0,-1.483638001E0,-9.158353543E-1,3.486729777E-1,1.778063261E0
9.555376750E0,-8.390681371E-1,-7.806798881E-1,3.339017050E-1,1.193728099E0
9.565328750E0,3.658499411E-1,-7.405282277E-1,1.916085792E-1,8.479045247E-1
9.575279750E0,2.102836212E0,-6.701832998E-1,1.933666907E-2,2.207133819E0
9.585230750E0,4.084445317E0,-5.222013813E-1,3.299700737E-2,4.117824260E0
9.595182750E0,5.744996967E0,-3.851970255E-1,5.632856727E-2,5.758171568E0
9.605133750E0,7.060553246E0,-1.628087032E-1,1.346964598E-2,7.062442938E0
9.615084750E0,7.385415192E0,9.498684883E-2,9.212390587E-2,7.386600495E0
9.625036750E0,6.809165073E0,3.307261187E-1,2.465829313E-1,6.821650233E0
9.634987750E0,5.615301631E0,3.509522223E-1,4.364481631E-1,5.643161071E0
9.644938750E0,4.348710229E0,2.438768399E-1,5.062851141E-1,4.384869574E0
9.654890750E0,3.181839873E0,-3.240994692E-2,6.098280475E-1,3.239914448E0
9.664841750E0,2.548317446E0,-3.303255844E-1,8.775910556E-1,2.715364222E0
9.674792750E0,2.519531603E0,2.303861439E-2,1.656007779E0,3.015117252E0
9.684744750E0,2.377687653E0,3.852274311E-1,2.466181315E0,3.447295901E0
9.694695750E0,1.591977844E0,4.390890580E-1,2.270441093E0,2.807506975E0
9.704646750E0,7.247483468E-1,1.837195158E-1,2.241586546E0,2.362990324E0
9.714598750E0,2.164901994E-1,-3.711701399E-1,2.884831431E0,2.916656933E0
9.724549750E0,-1.980783771E-1,-9.912767154E-1,3.316659709E0,3.467289459E0
9.734500750E0,-4.187137773E-1,-1.376359136E0,2.767289240E0,3.118906128E0
9.744452750E0,-6.288806149E-1,-1.504005607E0,1.963617515E0,2.552120185E0
9.754403750E0,-1.048116110E0,-1.455609373E0,1.061374891E0,2.084193534E0
9.764354750E0,-1.412016334E0,-1.213770872E0,3.187635925E-1,1.889084457E0
9.774307042E0,-1.699696128E0,-7.814242387E-1,9.717604637E-2,1.873241563E0
9.784258042E0,-1.863916934E0,-2.517699963E-1,5.043931013E-1,1.947302459E0
9.794209042E0,-1.887927794E0,3.177721971E-1,1.268127759E0,2.296388150E0
9.804161042E0,-1.819744728E0,8.553459084E-1,2.149496993E0,2.943369637E0
9.814112042E0,-1.614467551E0,1.322789285E0,2.916450542E0,3.586357585E0
9.824063042E0,-1.158082283E0,1.808512226E0,3.496074505E0,4.102975504E0
9.834014042E0,-6.693813542E-1,2.292958136E0,3.844585514E0,4.526208810E0
9.843966042E0,1.498169209E-1,2.930518650E0,3.805475828E0,4.805416834E0
9.853917042E0,7.909166086E-1,3.556743752E0,3.403119563E0,4.985699345E0
9.863868042E0,1.440520194E0,4.155078220E0,2.829625821E0,5.229393439E0
9.873820042E0,1.946623022E0,4.353363150E0,2.301768428E0,5.295210081E0
9.883771042E0,2.104684078E0,4.126663676E0,1.891429545E0,5.003654053E0
9.893722042E0,2.095622648E0,3.836133072E0,1.573830718E0,4.645911574E0
9.903674042E0,2.043699080E0,3.463352609E0,1.161824208E0,4.185851492E0
9.913625042E0,1.866051167E0,3.056011593E0,7.508751681E-1,3.658574495E0
9.923576042E0,1.713264446E0,2.562745743E0,2.442361513E-1,3.092344111E0
9.933528042E0,1.589561482E0,1.957470630E0,-3.094869849E-1,2.540507659E0
9.943479042E0,1.377118104E0,1.279572514E0,-8.725463703E-1,2.072461642E0
9.953430042E0,1.162241115E0,5.052994198E-1,-1.419324768E0,1.902791295E0
9.963382042E0,1.011537025E0,-2.440259439E-1,-1.953427865E0,2.213286298E0
9.973333042E0,7.649923933E-1,-1.004193799E0,-2.374729108E0,2.689415715E0
9.983284042E0,3.627626112E-1,-1.841230906E0,-2.952743332E0,3.498631325E0
9.993236042E0,3.589130603E-3,-2.298659171E0,-3.771074027E0,4.416429121E0
1.000318704E1,-2.350461555E-1,-2.317945043E0,-4.578252912E0,5.136975340E0
1.001313804E1,-2.304021507E-1,-2.039883626E0,-4.981496783E0,5.387905025E0
1.002309004E1,-5.234291870E-1,-2.162190421E0,-4.819234503E0,5.307924898E0
1.003304104E1,-1.157830706E0,-2.491064726E0,-4.363865042E0,5.156480730E0
1.004299204E1,-2.018091200E0,-2.616402133E0,-3.833115616E0,5.060733893E0
1.005294404E1,-2.531374846E0,-2.523948298E0,-3.406819097E0,4.938075534E0
1.006289504E1,-2.558273500E0,-2.408513736E0,-2.923499068E0,4.570836741E0
1.007284604E1,-2.254972284E0,-2.372110725E0,-2.221533812E0,3.955631653E0
1.008279804E1,-1.817303515E0,-2.419242207E0,-1.417032075E0,3.341153218E0
1.009274904E1,-1.404515233E0,-2.545344429E0,-5.407589820E-1,2.957002127E0
1.010270004E1,-1.212495156E0,-3.138325186E0,3.177657652E-1,3.379379316E0
1.011265104E1,-8.546881697E-1,-3.758114843E0,1.247880020E0,4.051064500E0
1.012260304E1,-3.744467734E-1,-4.007095132E0,2.331127006E0,4.650932692E0
1.013255404E1,-3.305383500E-2,-3.748976229E0,3.175837998E0,4.913436915E0
1.014250504E1,-3.255059073E-2,-2.896508905E0,4.027016011E0,4.960613000E0
1.015245704E1,-1.852707456E-1,-1.438285242E0,3.890163099E0,4.151669378E0
1.016240804E1,-2.420596166E-1,1.489127952E-1,3.216073859E0,3.228606347E0
1.017235904E1,-1.444081551E-1,1.446809898E0,2.672107387E0,3.042083247E0
1.018231104E1,2.393502910E-3,2.584072292E0,2.242469037E0,3.421418233E0
1.019226204E1,2.486277940E-1,3.556886424E0,1.958480590E0,4.068034297E0
1.020221304E1,6.305896830E-1,4.293834987E0,1.801163592E0,4.698813949E0
1.021216504E1,1.161282318E0,4.602712984E0,1.607439490E0,5.011726763E0
1.022211604E1,1.558004936E0,4.188657610E0,1.439742368E0,4.695219915E0
1.023206704E1,1.732373000E0,3.005204551E0,1.361868273E0,3.726534020E0
1.024201904E1,1.716273130E0,1.420643023E0,1.431725836E0,2.648331348E0
1.025197004E1,1.566250972E0,-2.034608853E-1,1.637364078E0,2.274972431E0
1.026192104E1,1.459759873E0,-1.652431329E0,1.895625068E0,2.907717762E0
1.027187304E1,1.309740053E0,-2.773203991E0,2.133235009E0,3.735876201E0
1.028182404E1,8.150723335E-1,-3.751951877E0,2.419129063E0,4.538025036E0
1.029177504E1,2.614000498E-1,-3.984474594E0,2.783345987E0,4.867379445E0
1.030172704E1,-1.504100844E-1,-3.408671202E0,3.912105360E0,5.190975911E0
1.031167804E1,-3.345742444E-1,-2.374679407E0,4.140476553E0,4.784828973E0
1.032162904E1,-2.490044277E-1,-1.386682395E0,3.447808371E0,3.724550151E0
1.033158104E1,1.298449153E-2,-4.354403955E-1,2.461882442E0,2.500128416E0
1.034153204E1,2.436860014E-1,5.409224117E-1,1.646187673E0,1.749832499E0
1.035148304E1,3.363664160E-1,1.417242867E0,1.062317535E0,1.802841717E0
1.036143504E1,3.964479821E-1,2.139970416E0,5.926212267E-1,2.255625036E0
1.037138604E1,3.975969965E-1,2.686820735E0,2.004834831E-1,2.723468866E0
1.038133704E1,3.055851744E-1,2.970845727E0,-9.070310555E-2,2.987897871E0
1.039128804E1,1.997379631E-1,3.044853936E0,-2.392271340E-1,3.060761403E0
1.040124004E1,1.300488735E-1,2.936243075E0,-3.188685501E-1,2.956368254E0
1.041119104E1,1.012832037E-1,2.570787418E0,-3.343970007E-1,2.594422401E0
1.042114204E1,2.878174961E-2,1.814734833E0,-4.610535755E-1,1.872608155E0
1.043109404E1,-3.631303646E-2,9.583270705E-1,-6.869262171E-1,1.179651236E0
1.044104504E1,8.022434693E-2,3.701345980E-1,-9.604496098E-1,1.032423856E0
1.045099604E1,3.906718101E-1,1.483193028E-1,-1.284423364E0,1.350691103E0
1.046094804E1,6.630672383E-1,2.638398188E-1,-1.735676969E0,1.876657708E0
1.047089904E1,8.876438811E-1,4.867368490E-1,-2.087596321E0,2.320104054E0
1.048085004E1,9.316789699E-1,5.313130975E-1,-2.281805157E0,2.521300078E0
1.049080204E1,7.367505609E-1,3.904197586E-1,-2.398095751E0,2.538915558E0
1.050075304E1,4.921650385E-1,1.316676021E-1,-2.407940708E0,2.461247903E0
1.051070404E1,1.093805742E-1,-3.873616648E-1,-2.344897199E0,2.379192309E0
1.052065604E1,-2.691867504E-1,-9.158166432E-1,-2.320649965E0,2.509302272E0
1.053060704E1,-6.402111302E-1,-1.369503275E0,-2.324743600E0,2.773056494E0
1.054055804E1,-1.118169262E0,-1.759212597E0,-2.389191173E0,3.170704326E0
1.055051004E1,-1.620374116E0,-2.011050421E0,-2.579575199E0,3.650225237E0
1.056046104E1,-2.122666313E0,-2.156520960E0,-2.890665198E0,4.184762862E0
1.057041204E1,-2.555385268E0,-2.204323702E0,-3.215424818E0,4.661329597E0
1.058036404E1,-2.801326175E0,-2.009945297E0,-3.445795174E0,4.874506418E0
1.059031504E1,-2.894132012E0,-1.542634653E0,-3.460939755E0,4.768000185E0
1.060026604E1,-2.769433999E0,-8.915582997E-1,-3.356640338E0,4.442035033E0
1.061021704E1,-2.790929825E0,-2.726550812E-1,-2.981882347E0,4.093318020E0
1.062016904E1,-2.865984393E0,1.418481892E-1,-2.148483962E0,3.584685591E0
1.063012004E1,-2.967299391E0,2.428658563E-1,-1.769375496E0,3.463313319E0
1.064007104E1,-3.363807563E0,-2.166995662E-1,-1.253919024E0,3.596452828E0
1.065002304E1,-3.718132752E0,-9.730228776E-1,-5.871488176E-1,3.887933694E0
1.065997404E1,-3.912759663E0,-1.528275645E0,-2.272772525E-1,4.206776626E0
1.066992504E1,-3.910769564E0,-1.746687861E0,-1.808032170E-3,4.283111058E0
1.067987704E1,-3.688939066E0,-1.695759197E0,1.598096663E-1,4.063177305E0
1.068982804E1,-3.405749056E0,-1.615002717E0,4.179624832E-1,3.792367736E0
1.069977904E1,-3.207589549E0,-1.519602470E0,7.999745303E-1,3.638376235E0
1.070973104E1,-2.946507569E0,-1.488592932E0,1.170814303E0,3.502659262E0
1.071968204E1,-2.656331599E0,-1.529070282E0,1.387465922E0,3.364404134E0
1.072963304E1,-2.356264186E0,-1.518855196E0,1.544294093E0,3.200585300E0
1.073958504E1,-1.910268104E0,-1.515875455E0,1.691111830E0,2.967635734E0
1.074953604E1,-1.113740946E0,-1.489151925E0,1.799611595E0,2.587777858E0
1.075948704E1,1.045340364E-1,-1.691434597E0,1.500126418E0,2.263240515E0
1.076943938E1,1.888086692E0,-1.921668713E0,6.402093029E-1,2.769034119E0
1.077939037E1,4.017060542E0,-1.811710653E0,-1.209414697E-1,4.408366787E0
1.078934137E1,5.594348719E0,-1.595875890E0,-3.519064879E-1,5.828155422E0
1.079929237E1,6.643162621E0,-1.316923943E0,-4.041034126E-1,6.784482135E0
1.080924437E1,7.129751535E0,-1.030399266E0,-2.359490387E-1,7.207686976E0
1.081919537E1,6.765731955E0,-7.850120902E-1,1.079511492E-1,6.811976682E0
1.082914637E1,5.904230098E0,-4.851885062E-1,3.287247629E-1,5.933245394E0
1.083909838E1,4.976121438E0,-3.530531269E-1,4.355973932E-1,5.007611823E0
1.084904937E1,3.846911829E0,-4.472465086E-1,3.443676728E-1,3.888103542E0
1.085900038E1,3.034626279E0,7.509637535E-2,1.876698947E-1,3.041351033E0
1.086895237E1,1.990510176E0,-1.171220684E-1,2.021347368E-1,2.004172345E0
1.087890338E1,1.740412045E0,2.317923993E-1,4.822268915E-1,1.820797786E0
1.088885437E1,2.211225025E0,9.839285195E-1,9.548339438E-1,2.601795400E0
1.089880637E1,1.883358633E0,1.087675667E0,1.237149795E0,2.502122641E0
1.090875737E1,1.494354339E0,1.079466176E0,1.330256179E0,2.273306759E0
1.091870837E1,1.516553147E0,9.677907890E-1,1.451492056E0,2.311575577E0
1.092866038E1,1.636983570E0,9.116458243E-1,1.724068492E0,2.546217878E0
1.093861137E1,1.401364022E0,8.405933833E-1,1.578078135E0,2.271728188E0
1.094856238E1,7.842319985E-1,7.236555022E-1,1.316343022E0,1.694537124E0
1.095851437E1,4.463384360E-2,5.703561258E-1,1.428661310E0,1.538951406E0
1.096846538E1,-2.475994697E-1,6.246095163E-1,1.377325973E0,1.532471657E0
1.097841637E1,-4.937507303E-1,6.866110522E-1,1.396139389E0,1.632308094E0
1.098836737E1,-4.457162923E-1,8.325435215E-1,1.718854530E0,1.961186535E0
1.099831937E1,-2.130886182E-1,1.154379534E0,2.250664641E0,2.538403079E0
1.100827037E1,2.061143517E-4,1.462585101E0,2.722868527E0,3.090819995E0
1.101822138E1,1.311729276E-1,1.697688779E0,3.136533015E0,3.568920408E0
1.102817337E1,2.569585962E-1,1.952016932E0,3.389592614E0,3.919915294E0
1.103812438E1,3.006971580E-1,2.103382049E0,3.326033965E0,3.946788158E0
1.104807537E1,5.654850297E-1,2.336950248E0,2.845135561E0,3.725037737E0
1.105802738E1,9.778193486E-1,2.613453966E0,2.342593688E0,3.643352508E0
1.106797837E1,1.371900634E0,2.766952733E0,1.992958259E0,3.675598100E0
1.107792937E1,1.641366643E0,2.740372460E0,1.798245100E0,3.665707451E0
1.108788137E1,1.588904840E0,2.500302742E0,1.565171576E0,3.350506597E0
1.109783237E1,1.531250709E0,2.226622644E0,1.236947189E0,2.971971649E0
1.110778337E1,1.577937364E0,1.974328153E0,8.418818173E-1,2.663948755E0
1.111773537E1,1.619914086E0,1.727442335E0,3.599019706E-1,2.395351352E0
1.112768638E1,1.629011038E0,1.591097546E0,-1.583440617E-1,2.282617183E0
1.113763737E1,1.655454632E0,1.569242408E0,-8.296017873E-1,2.427198158E0
1.114758838E1,1.522054939E0,1.468052248E0,-1.611892583E0,2.658952113E0
1.115754037E1,1.182928345E0,1.226437696E0,-2.567070051E0,3.081122772E0
1.116749138E1,9.117746823E-1,8.195106626E-1,-3.796304470E0,3.989343107E0
1.117744237E1,7.350901709E-1,1.437678301E-1,-5.354524584E0,5.406658882E0
1.118739437E1,2.272127138E-1,-1.021237848E0,-6.689407665E0,6.770725756E0
1.119734537E1,-1.135081383E0,-2.637013568E0,-7.112037395E0,7.669636642E0
1.120729637E1,-2.580168107E0,-3.858781677E0,-6.517538116E0,8.001610249E0
1.121724838E1,-3.453929528E0,-4.200841454E0,-5.222487438E0,7.539965062E0
1.122719937E1,-3.491893745E0,-3.839792259E0,-4.087895174E0,6.606679459E0
1.123715038E1,-2.840679690E0,-3.163889798E0,-3.454352867E0,5.478340395E0
1.124710237E1,-2.088410984E0,-2.654207890E0,-2.775159008E0,4.371245530E0
1.125705338E1,-1.548617524E0,-2.344853929E0,-2.041586920E0,3.473418106E0
1.126700437E1,-1.449114578E0,-2.319180560E0,-1.622804657E0,3.179941270E0
1.127695637E1,-1.603881898E0,-2.550468929E0,-1.171760967E0,3.232700522E0
1.128690737E1,-1.484939153E0,-2.918041277E0,-1.228994098E-1,3.276448297E0
1.129685837E1,-6.009656420E-1,-3.222370141E0,1.347160041E0,3.543962359E0
1.130680938E1,3.738194402E-1,-3.459006958E0,2.719672147E0,4.416003476E0
1.131676137E1,8.665054657E-1,-3.593595244E0,3.507685028E0,5.095940812E0
1.132671238E1,9.448400290E-1,-3.508308926E0,3.894001211E0,5.325805069E0
1.133666337E1,9.234449939E-1,-2.947427629E0,4.090817320E0,5.125901543E0
1.134661538E1,8.764875399E-1,-1.790716226E0,3.721486130E0,4.221889864E0
1.135656637E1,9.719497673E-1,-4.374214321E-1,3.237350707E0,3.408293335E0
1.136651737E1,1.081868651E0,7.741134650E-1,2.878509421E0,3.171042088E0
1.137646937E1,1.300281013E0,1.885521226E0,2.575761645E0,3.446805631E0
1.138642037E1,1.607445776E0,2.748554469E0,2.491683362E0,4.043132395E0
1.139637137E1,1.970421335E0,3.350769734E0,2.359167767E0,4.547074950E0
1.140632337E1,2.343877006E0,3.684449281E0,2.195923008E0,4.887842446E0
1.141627438E1,2.411128026E0,3.560676005E0,2.143355223E0,4.804781325E0
1.142622537E1,2.314767666E0,3.167001101E0,2.077791564E0,4.439061061E0
1.143617738E1,2.135435462E0,2.505728958E0,2.029860768E0,3.867699182E0
1.144612837E1,2.005084507E0,1.686238761E0,2.125146117E0,3.373427197E0
1.145607937E1,2.051653486E0,8.322201705E-1,2.331341014E0,3.215124160E0
1.146603037E1,2.001744723E0,-2.753746212E-2,2.539190819E0,3.233454850E0
1.147598237E1,1.827314825E0,-7.328771460E-1,2.713201618E0,3.352260641E0
1.148593337E1,1.725115436E0,-1.317764772E0,2.876214974E0,3.603489953E0
1.149588437E1,1.555762675E0,-1.817314040E0,3.086328821E0,3.904926813E0
1.150583638E1,1.263498226E0,-2.180030860E0,3.848994023E0,4.600404037E0
1.151578737E1,8.734516655E-1,-2.213093356E0,4.072752055E0,4.716779550E0
1.152573838E1,4.861608982E-1,-1.914117034E0,3.750931538E0,4.239066388E0
1.153569037E1,2.582283373E-1,-1.513100951E0,3.151200171E0,3.505170307E0
1.154564138E1,3.092564584E-1,-9.766785568E-1,2.460725863E0,2.665466626E0
1.155559237E1,4.373715846E-1,-3.238679194E-1,1.773292108E0,1.854925667E0
1.156554437E1,5.208929572E-1,3.035675561E-1,1.124757612E0,1.276151410E0
1.157549537E1,5.581072323E-1,8.914998275E-1,4.720935937E-1,1.152878132E0
1.158544637E1,4.535080360E-1,1.357621148E0,-4.420810783E-1,1.498078903E0
1.159539838E1,2.299275029E-1,1.670738377E0,-1.706129819E0,2.398981522E0
1.160534937E1,-5.866510550E-2,1.859159639E0,-3.277447988E0,3.768498570E0
1.161530038E1,-5.260062742E-1,1.836422741E0,-4.894696037E0,5.254253551E0
1.162525137E1,-1.020021116E0,1.691679595E0,-5.768199304E0,6.097076852E0
1.163520338E1,-1.344121243E0,1.517961157E0,-5.730615740E0,6.078719006E0
1.164515437E1,-1.414628577E0,1.356744066E0,-5.136015889E0,5.497325503E0
1.165510537E1,-1.238417617E0,1.184567538E0,-4.176076741E0,4.514033163E0
1.166505737E1,-9.988552185E-1,1.073905474E0,-3.188518855E0,3.509649157E0
1.167500837E1,-9.452614671E-1,1.097862101E0,-2.276068454E0,2.698019281E0
1.168495938E1,-9.651616616E-1,1.083879070E0,-1.469995278E0,2.065724325E0
1.169491137E1,-1.066143441E0,9.939050388E-1,-8.057299447E-1,1.665445828E0
1.170486238E1,-1.076045263E0,8.163701230E-1,-5.951942939E-2,1.351989699E0
1.171481337E1,-9.828669575E-1,4.611190277E-1,4.210808398E-1,1.164460084E0
1.172476538E1,-8.131236027E-1,1.635179704E-1,6.033782397E-1,1.025657555E0
1.173471637E1,-7.304896548E-1,-7.495194912E-2,8.817998815E-1,1.147520789E0
1.174466737E1,-6.688464801E-1,-3.193252176E-1,1.126264951E0,1.348257004E0
1.175461837E1,-6.132511537E-1,-4.824847537E-1,1.100193386E0,1.348812071E0
1.176457037E1,-6.070547862E-1,-5.842894560E-1,7.675891417E-1,1.139781897E0
1.177452150E1,-7.298835178E-1,-6.642431134E-1,2.947505397E-1,1.029964438E0
1.178447250E1,-9.649793015E-1,-7.683937186E-1,-1.811226942E-1,1.246763566E0
1.179442450E1,-1.167338279E0,-8.962559527E-1,-5.794589981E-1,1.581684583E0
1.180437550E1,-1.237438355E0,-1.003182816E0,-9.209616083E-1,1.840054273E0
1.181432650E1,-1.158849730E0,-1.002681125E0,-1.362155664E0,2.050309778E0
1.182427850E1,-1.034341824E0,-8.214887756E-1,-1.994759493E0,2.392440648E0
1.183422950E1,-9.958050916E-1,-5.575016069E-1,-2.657533202E0,2.892216890E0
1.184418050E1,-1.070556920E0,-3.612614483E-1,-3.208210523E0,3.401355129E0
1.185413250E1,-1.271048443E0,-3.064864862E-1,-3.463680637E0,3.702240088E0
1.186408350E1,-1.633422324E0,-5.510024267E-1,-3.597086032E0,3.988821892E0
1.187403450E1,-2.083539231E0,-1.114559410E0,-3.553649991E0,4.267529339E0
1.188398550E1,-2.555024787E0,-1.870337761E0,-3.265616732E0,4.548688563E0
1.189393750E1,-3.208103519E0,-2.734243993E0,-2.809793235E0,5.065861864E0
1.190388850E1,-3.719135257E0,-3.423679835E0,-2.324745939E0,5.563990866E0
1.191383950E1,-4.018181453E0,-3.706299157E0,-1.915130941E0,5.792250180E0
1.192379150E1,-4.229876095E0,-3.602170186E0,-1.571867223E0,5.773928333E0
1.193374250E1,-4.121445621E0,-3.088884639E0,-1.283412380E0,5.307981693E0
1.194369350E1,-3.746906315E0,-2.383104660E0,-9.826473945E-1,4.547976545E0
1.195364550E1,-3.159821013E0,-1.755724733E0,-7.678534359E-1,3.695488746E0
1.196359650E1,-2.507726659E0,-1.276460041E0,-5.706718755E-1,2.871186101E0
1.197354750E1,-1.991091243E0,-1.010444473E0,-3.181306314E-1,2.255360164E0
1.198349950E1,-1.691501547E0,-9.943611217E-1,-4.894177973E-2,1.962734527E0
1.199345050E1,-1.116091088E0,-1.155423846E0,1.126466278E-1,1.610389035E0
1.200340150E1,-7.532588770E-2,-1.218037001E0,1.332299781E-1,1.227614904E0
1.201335350E1,1.385294997E0,-1.057272484E0,2.879345135E-1,1.766288090E0
1.202330450E1,3.218977586E0,-9.059804571E-1,6.052195644E-1,3.398368433E0
1.203325550E1,4.912099689E0,-8.279055101E-1,9.968344939E-1,5.080140736E0
1.204320650E1,6.035557977E0,-7.237806326E-1,1.375168204E0,6.232407728E0
1.205315850E1,6.292332020E0,-5.018045390E-1,1.484494764E0,6.484518082E0
1.206310950E1,5.795522173E0,-3.689446896E-1,1.616918850E0,6.028152620E0
1.207306050E1,5.040207506E0,-2.471582973E-1,1.786709129E0,5.353233457E0
1.208301250E1,3.800865883E0,-8.859514046E-1,1.794231133E0,4.295434403E0
1.209296350E1,3.000685823E0,-8.853351080E-1,2.068307234E0,3.750443770E0
1.210291450E1,2.084755451E0,-1.227904177E0,2.388075378E0,3.399537906E0
1.211286650E1,1.926003985E0,-1.121083149E0,2.362478314E0,3.247710357E0
1.212281750E1,2.476424760E0,-3.174535239E-1,2.313186871E0,3.403570160E0
1.213276850E1,2.303969613E0,-2.512899399E-2,2.333903264E0,3.279635938E0
1.214272050E1,1.660468766E0,-1.246415877E-1,2.620675278E0,3.104936547E0
1.215267150E1,1.187533685E0,-3.436893958E-1,2.858274547E0,3.114175981E0
1.216262250E1,9.211583671E-1,-7.012823009E-1,3.148195871E0,3.354320624E0
1.217257350E1,5.156027985E-1,-8.714257514E-1,2.978681581E0,3.146072639E0
1.218252550E1,9.773087405E-2,-7.624459308E-1,2.305486965E0,2.430256214E0
1.219247650E1,-6.890222977E-1,-6.157913303E-1,1.452244885E0,1.721326783E0
1.220242750E1,-1.265719290E0,-3.499096638E-1,7.742277780E-1,1.524437846E0
1.221237950E1,-1.778589393E0,1.003890914E-1,7.943764061E-1,1.950510721E0
1.222233050E1,-2.311903992E0,5.320276272E-1,1.045287739E0,2.592408132E0
1.223228150E1,-2.786032782E0,9.462402910E-1,1.476143625E0,3.291861077E0
1.224223350E1,-2.855826902E0,1.427471986E0,2.120383998E0,3.832682072E0
1.225218450E1,-2.479707679E0,2.030174325E0,2.727110975E0,4.208050883E0
1.226213550E1,-1.950526769E0,2.576797771E0,3.259846407E0,4.590320254E0
1.227208650E1,-8.811832195E-1,3.112261223E0,3.624056314E0,4.857616489E0
1.228203850E1,2.065425872E-1,3.719646596E0,3.747395435E0,5.284070702E0
1.229198950E1,1.216983333E0,4.152611865E0,3.559524688E0,5.603164261E0
1.230194050E1,1.756850614E0,4.177999890E0,3.254925391E0,5.580031045E0
1.231189250E1,2.097984631E0,4.105023715E0,3.014555711E0,5.508203459E0
1.232184350E1,2.108663547E0,3.886116241E0,2.825884188E0,5.247283377E0
1.233179450E1,2.084889060E0,3.444433942E0,2.557115751E0,4.769667551E0
1.234174650E1,1.973947791E0,2.830234809E0,2.361902948E0,4.181540923E0
1.235169750E1,1.883186725E0,2.122814686E0,2.113229637E0,3.538145550E0
1.236164850E1,1.619807813E0,1.346143649E0,1.643489767E0,2.671504948E0
1.237160050E1,1.456026718E0,7.684720713E-1,1.167066822E0,2.018070389E0
1.238155150E1,1.322470758E0,-4.504987299E-2,6.887683824E-1,1.491764150E0
1.239150250E1,1.657898184E0,-2.276367831E-1,1.479462504E-1,1.679980055E0
1.240145350E1,1.957053431E0,-7.589165515E-1,-7.058863986E-1,2.214562727E0
1.241140550E1,2.496247113E0,-8.082155961E-1,-1.905614890E0,3.242812084E0
1.242135650E1,2.887358013E0,-1.020941395E0,-3.734638564E0,4.829770474E0
1.243130750E1,2.474775260E0,-1.590750806E0,-5.908603231E0,6.600499440E0
1.244125950E1,1.417251346E0,-2.265480316E0,-7.510246814E0,7.971499837E0
1.245121050E1,-7.766206048E-2,-2.765215525E0,-8.049473534E0,8.511549357E0
1.246116150E1,-1.702517702E0,-2.869100082E0,-7.329112937E0,8.052713720E0
1.247111350E1,-2.873614425E0,-2.550221592E0,-5.768807999E0,6.931120815E0
1.248106450E1,-3.432015918E0,-1.965713450E0,-4.209110001E0,5.775757061E0
1.249101550E1,-3.607307550E0,-1.436729298E0,-3.140408549E0,4.993898747E0
1.250096750E1,-3.413388736E0,-1.008121959E0,-2.471699040E0,4.333223822E0
1.251091850E1,-3.095956846E0,-8.980849618E-1,-2.030629238E0,3.809850456E0
1.252086950E1,-2.920271113E0,-1.134887255E0,-1.397066904E0,3.430415192E0
1.253082050E1,-2.858102054E0,-1.515467319E0,-3.946964121E-1,3.259014238E0
1.254077250E1,-2.549213532E0,-1.873235056E0,9.544949515E-1,3.304324412E0
1.255072350E1,-1.682262070E0,-1.928692973E0,2.449947106E0,3.542894731E0
1.256067450E1,-7.930694072E-1,-2.111138965E0,3.290921435E0,3.989490031E0
1.257062650E1,-4.308412680E-1,-2.506615396E0,3.489918848E0,4.318365259E0
1.258057750E1,-2.047776052E-1,-2.897778921E0,3.969135593E0,4.918647568E0
1.259052850E1,-2.664238131E-1,-2.945934250E0,4.499547342E0,5.384741084E0
1.260048050E1,-5.097756826E-1,-2.011750333E0,3.904063100E0,4.421393370E0
1.261043150E1,-3.525802334E-1,-4.445105964E-1,3.238026645E0,3.287357456E0
1.262038250E1,-1.871841555E-1,8.748884726E-1,2.670927418E0,2.816792684E0
1.263033450E1,-7.342533248E-2,1.984581245E0,2.365989421E0,3.088990116E0
1.264028550E1,2.139937307E-1,2.938878999E0,2.262105449E0,3.714824915E0
1.265023650E1,6.795859149E-1,3.628797237E0,2.148218206E0,4.271398818E0
1.266018750E1,1.208320317E0,3.933543591E0,1.975476107E0,4.564571067E0
1.267013950E1,1.697450797E0,3.686934348E0,1.880906750E0,4.473548289E0
1.268009050E1,2.098410893E0,2.708371233E0,1.840936207E0,3.889427866E0
1.269004150E1,2.362671272E0,1.280276518E0,1.884094651E0,3.281940914E0
1.269999350E1,2.427951781E0,-1.082214367E-1,1.994812703E0,3.144191382E0
1.270994450E1,2.403091466E0,-1.299638988E0,2.143509736E0,3.472541445E0
1.271989550E1,2.232854753E0,-2.190668700E0,2.301809067E0,3.883683133E0
1.272984750E1,1.674081815E0,-3.134018712E0,2.572944456E0,4.386874330E0
1.273979850E1,1.313082907E0,-3.361066096E0,2.989493083E0,4.685938637E0
1.274974950E1,1.032449884E0,-3.671910512E0,3.890580590E0,5.448439859E0
1.275970050E1,7.790055379E-1,-3.332529345E0,4.156200886E0,5.383921179E0
1.276965225E1,8.050631429E-1,-2.447010634E0,3.937888073E0,4.705629626E0
1.277960325E1,9.071860798E-1,-1.512929628E0,3.489412479E0,3.909979807E0
1.278955425E1,7.912039992E-1,-6.763790095E-1,3.003237548E0,3.178510359E0
1.279950625E1,4.613290890E-1,1.850503421E-1,2.530688968E0,2.579041452E0
1.280945725E1,1.812736986E-1,8.966114634E-1,2.022448983E0,2.219700917E0
1.281940825E1,-2.756845236E-2,1.498314512E0,1.181224027E0,1.908139565E0
1.282936025E1,-1.522501666E-1,1.884695014E0,-1.138242022E-1,1.894257469E0
1.283931125E1,-8.230047394E-2,2.260296174E0,-1.721415610E0,2.842355338E0
1.284926225E1,3.111016935E-1,2.706024746E0,-3.522458603E0,4.452759684E0
1.285921425E1,9.696063495E-1,2.868744571E0,-5.007751366E0,5.852128300E0
1.286916525E1,1.556318161E0,2.543264574E0,-5.669660856E0,6.405885976E0
1.287911625E1,1.648543808E0,1.943763587E0,-5.452954858E0,6.019188504E0
1.288906725E1,1.577703767E0,1.206734333E0,-4.852756882E0,5.243529945E0
1.289901925E1,1.358113922E0,6.767947465E-1,-3.863983360E0,4.151251855E0
1.290897025E1,1.205053843E0,3.304542232E-1,-2.839873359E0,3.102617517E0
1.291892125E1,8.599358265E-1,1.608183110E-1,-1.827404580E0,2.026020645E0
1.292887325E1,6.734613220E-1,3.429965007E-1,-1.004918854E0,1.257401549E0
1.293882425E1,4.035147442E-1,4.460115767E-1,-3.167600441E-1,6.797701088E-1
1.294877525E1,6.746995247E-2,4.391370052E-1,2.676890592E-1,5.187012013E-1
1.295872725E1,-3.102251593E-1,4.136846602E-1,7.057454807E-1,8.749007550E-1
1.296867825E1,-9.145613922E-1,2.281314576E-1,1.018361603E0,1.387633545E0
1.297862925E1,-1.248552158E0,1.280832589E-2,1.168564294E0,1.710142992E0
1.298858025E1,-1.384593038E0,-2.908878690E-1,1.222885512E0,1.870070215E0
1.299853225E1,-1.453599685E0,-6.914589787E-1,1.213006057E0,2.015552345E0
1.300848325E1,-1.618838929E0,-9.808213091E-1,1.018006092E0,2.149182711E0
1.301843425E1,-1.920962369E0,-1.356362243E0,9.150991899E-1,2.523335389E0
1.302838625E1,-2.197636680E0,-1.623207530E0,8.676063502E-1,2.866557246E0
1.303833725E1,-2.378839555E0,-1.650401176E0,7.336419618E-1,2.986792962E0
1.304828825E1,-2.392323965E0,-1.383071154E0,4.998100537E-1,2.808186223E0
1.305824025E1,-2.173552438E0,-8.073560554E-1,1.190452542E-1,2.321707512E0
1.306819125E1,-1.964395780E0,-1.798726326E-1,-4.451468100E-1,2.022216760E0
1.307814225E1,-1.900095119E0,2.854756862E-1,-1.123033780E0,2.225547730E0
1.308809425E1,-2.047623001E0,5.293080872E-1,-1.683253757E0,2.703011324E0
1.309804525E1,-2.270728630E0,6.414559293E-1,-2.064309785E0,3.135131434E0
1.310799625E1,-2.640446760E0,5.148140091E-1,-2.177178589E0,3.460794586E0
1.311794725E1,-3.136845256E0,6.893399477E-2,-2.059098161E0,3.752923566E0
1.312789925E1,-3.540521822E0,-6.220314789E-1,-1.819777472E0,4.029120001E0
1.313785025E1,-3.643283129E0,-1.310869151E0,-1.449708363E0,4.134433967E0
1.314780125E1,-3.603640176E0,-1.852831197E0,-1.087644750E0,4.195494854E0
1.315775325E1,-3.496813300E0,-2.219905363E0,-8.447104809E-1,4.227199886E0
1.316770425E1,-3.391523657E0,-2.489273724E0,-6.436054388E-1,4.255953989E0
1.317765525E1,-3.207082011E0,-2.560393408E0,-4.449036024E-1,4.127823717E0
1.318760725E1,-2.932797895E0,-2.538134227E0,-3.273850928E-1,3.892378431E0
1.319755825E1,-2.527605439E0,-2.374687593E0,-3.463049284E-1,3.485377673E0
1.320750925E1,-2.046400640E0,-2.163502536E0,-3.252157027E-1,2.995707605E0
1.321746025E1,-1.318645363E0,-1.790819721E0,-3.631593814E-1,2.253385365E0
1.322741225E1,-6.431448975E-1,-1.392188718E0,-4.342586732E-1,1.593864919E0
1.323736325E1,-1.137482432E-1,-1.038729209E0,-5.439757546E-1,1.178052059E0
1.324731425E1,4.122386803E-1,-6.247328925E-1,-5.969082956E-1,9.573564800E-1
1.325726625E1,1.054750653E0,-1.778027183E-1,-6.721029407E-1,1.263263674E0
1.326721725E1,1.909133452E0,1.932487231E-1,-8.169068974E-1,2.085538896E0
1.327716825E1,2.888131015E0,3.051158988E-1,-9.895371687E-1,3.068155843E0
1.328712025E1,3.647161002E0,1.808274829E-1,-1.098447407E0,3.813275319E0
1.329707125E1,4.222329971E0,1.061357349E-1,-1.287975547E0,4.415678452E0
1.330702225E1,4.616979898E0,5.676886261E-2,-1.188796245E0,4.767909667E0
1.331697325E1,4.746562675E0,1.231125408E-1,-9.181287054E-1,4.836111480E0
1.332692525E1,4.696951974E0,2.395042920E-1,-6.910707235E-1,4.753556447E0
1.333687625E1,4.497370716E0,1.031302661E-1,-3.923304825E-1,4.515628685E0
1.334682725E1,3.910097719E0,-1.704849279E-1,-1.800673449E-1,3.917952721E0
1.335677925E1,3.393778051E0,-4.217450470E-1,3.527050714E-1,3.438022573E0
1.336673025E1,3.015797075E0,-1.040244223E0,7.857733977E-1,3.285510595E0
1.337668125E1,2.973977496E0,-1.343515910E0,1.094447620E0,3.442004175E0
1.338663325E1,3.137597208E0,-1.166106709E0,1.530685575E0,3.680668340E0
1.339658425E1,3.089855277E0,-8.344789499E-1,1.919518107E0,3.732038386E0
1.340653525E1,2.404748275E0,-7.752378845E-1,2.208618482E0,3.355861088E0
1.341648725E1,1.749935843E0,-7.957241893E-1,2.334287134E0,3.023962444E0
1.342643825E1,1.186652509E0,-8.959676850E-1,2.528100405E0,2.932949698E0
1.343638925E1,7.976278234E-1,-1.014427012E0,2.553496032E0,2.861051257E0
1.344634025E1,7.398253924E-1,-9.764037377E-1,2.666391441E0,2.934339651E0
1.345629225E1,7.037553808E-1,-9.691350639E-1,2.969834451E0,3.202250939E0
1.346624325E1,7.420544972E-1,-7.494154108E-1,3.111387941E0,3.285270652E0
1.347619425E1,6.989660726E-1,-3.597224611E-1,3.119907627E0,3.217417818E0
1.348614625E1,3.676158368E-1,1.126816928E-2,3.128566476E0,3.150110565E0
1.349609725E1,-1.180783074E-1,3.133809382E-1,2.857766131E0,2.877321213E0
1.350604825E1,-5.544764037E-1,6.514973527E-1,2.179293819E0,2.341199357E0
1.351600025E1,-6.206147716E-1,1.022751108E0,2.541459831E0,2.808950088E0
1.352595125E1,-4.160625766E-1,1.407890246E0,2.734940397E0,3.104055732E0
1.353590225E1,-1.423669688E0,1.248750086E0,2.825231346E-1,1.914688351E0
1.354585325E1,-1.421354629E0,1.329369741E0,5.613783109E-1,2.025492162E0
1.355580525E1,-1.034479453E0,1.501172047E0,9.366868177E-1,2.049645688E0
1.356575625E1,-3.226823234E-1,1.833792663E0,1.179792702E0,2.204275444E0
1.357570725E1,8.709809245E-1,2.263882856E0,1.978971719E0,3.130511527E0
1.358565925E1,1.468089962E0,2.485063144E0,2.519198604E0,3.831081907E0
1.359561025E1,1.477380749E0,2.484208866E0,2.475107090E0,3.805273009E0
1.360556125E1,1.173220724E0,2.250123188E0,2.110948346E0,3.300849005E0
1.361551325E1,1.090776884E0,2.083719032E0,1.796029883E0,2.959290887E0
1.362546425E1,1.052123353E0,1.972251222E0,1.276877532E0,2.574326060E0
1.363541525E1,8.932437596E-1,1.811380286E0,8.841478309E-1,2.204699603E0
1.364536725E1,6.934353375E-1,1.589746839E0,4.621650946E-1,1.794921768E0
1.365531825E1,2.292433422E-1,1.178809201E0,1.061749113E-1,1.205577353E0
1.366526925E1,-8.348135568E-2,5.983204347E-1,-3.554308972E-1,7.009191123E-1
1.367522025E1,-2.795255961E-1,-4.717767477E-2,-7.884233558E-1,8.378375021E-1
1.368517225E1,-4.896585564E-1,-5.497511226E-1,-9.725586087E-1,1.219779507E0
1.369512325E1,-6.457603571E-1,-9.206984836E-1,-1.149485999E0,1.608107645E0
1.370507425E1,-6.361718005E-1,-1.182508149E0,-1.453922159E0,1.979123474E0
1.371502625E1,-4.850024186E-1,-1.509204952E0,-1.903085385E0,2.476824764E0
1.372497725E1,-1.927582514E-1,-1.774594867E0,-2.497768559E0,3.070047306E0
1.373492825E1,2.700689673E-1,-1.840791780E0,-3.009308127E0,3.537991949E0
1.374488025E1,6.906468735E-1,-1.592673370E0,-3.288578456E0,3.718648925E0
1.375483125E1,1.143088341E0,-1.175748768E0,-3.249322589E0,3.639661166E0
1.376478225E1,1.219310378E0,-8.737114280E-1,-2.941731856E0,3.302101720E0
1.377473292E1,1.023934657E0,-8.270494777E-1,-2.570863140E0,2.888215765E0
1.378468492E1,7.950397727E-1,-1.010070251E0,-2.075577077E0,2.441382878E0
1.379463592E1,7.291002832E-1,-1.318937139E0,-1.256056767E0,1.961851422E0
1.380458692E1,7.550075416E-1,-1.544174809E0,-5.306639104E-1,1.798920903E0
1.381453892E1,7.266314426E-1,-1.595699889E0,-6.695617408E-2,1.754632303E0
1.382448992E1,5.734012827E-1,-1.724246247E0,5.779249080E-1,1.906780363E0
1.383444092E1,5.232514682E-1,-1.857254031E0,1.091331346E0,2.216796956E0
1.384439292E1,4.655067784E-1,-1.879703831E0,1.490712547E0,2.443809925E0
1.385434392E1,4.382432948E-1,-1.778047063E0,1.863187493E0,2.612465537E0
1.386429492E1,4.023434007E-1,-1.641599947E0,2.154127256E0,2.738064067E0
1.387424592E1,3.453873541E-1,-1.218836900E0,2.235516844E0,2.569511894E0
1.388419792E1,1.331757086E-1,-7.335109842E-1,2.279259864E0,2.398082497E0
1.389414892E1,1.977113547E-2,-1.131892312E-1,2.390119711E0,2.392880050E0
1.390409992E1,9.967903839E-2,5.463462889E-1,2.458769385E0,2.520709635E0
1.391405192E1,1.335441380E-1,1.140564902E0,2.507069725E0,2.757557060E0
1.392400292E1,9.636441629E-2,1.588662765E0,2.566201740E0,3.019689860E0
1.393395392E1,1.685582703E-1,1.871323602E0,2.659798998E0,3.256500364E0
1.394390592E1,2.616222623E-1,2.055664092E0,2.684806077E0,3.391516584E0
1.395385692E1,4.207526648E-1,2.011877802E0,2.688951753E0,3.384545261E0
1.396380792E1,5.701691246E-1,1.806118961E0,2.703259013E0,3.300722318E0
1.397375892E1,6.079370214E-1,1.391458400E0,2.797137814E0,3.182722711E0
1.398371092E1,6.024173229E-1,7.949166888E-1,2.914888458E0,3.080807345E0
1.399366192E1,5.493595419E-1,8.496706009E-2,3.042785776E0,3.093147359E0
1.400361292E1,4.236621663E-1,-6.041290587E-1,3.165801837E0,3.250655753E0
1.401356492E1,3.492529849E-1,-1.199954486E0,3.312389195E0,3.540309393E0
1.402351592E1,3.347376741E-1,-1.583452896E0,3.431436167E0,3.793959218E0
1.403346692E1,2.783994406E-1,-1.786048393E0,3.525302689E0,3.961721111E0
1.404341892E1,2.146054590E-1,-1.817081906E0,3.430327535E0,3.887800040E0
1.405336992E1,2.470751207E-1,-1.598054563E0,3.167738435E0,3.556598276E0
1.406332092E1,2.521130086E-1,-1.329141700E0,2.889774667E0,3.190764211E0
1.407327192E1,-1.659122773E-2,-1.101723602E0,2.605920414E0,2.829291672E0
1.408322392E1,-1.491082932E-1,-1.075581871E0,2.218920107E0,2.470367601E0
1.409317492E1,3.582781257E-1,-1.169013945E0,1.603214146E0,2.016247112E0
1.410312592E1,3.123811739E-1,-7.684878588E-1,6.920214808E-1,1.080300568E0
1.411307792E1,1.408871354E-1,-3.161133420E-1,-3.171132159E-1,4.694013439E-1
1.412302892E1,1.709165620E-1,5.000012577E-2,-1.236891932E0,1.249645604E0
1.413297992E1,3.209097400E-1,3.660485637E-1,-1.870037799E0,1.932360210E0
1.414293192E1,5.555898598E-1,5.772833222E-1,-2.119304602E0,2.265698154E0
1.415288292E1,7.331378587E-1,6.924378026E-1,-2.005309625E0,2.244599724E0
1.416283392E1,8.446930855E-1,9.042742395E-1,-1.603819917E0,2.025699049E0
1.417278492E1,8.933035474E-1,1.207587442E0,-9.804610475E-1,1.793756540E0
1.418273692E1,1.028717607E0,1.403085589E0,-3.900104535E-1,1.782979876E0
1.419268792E1,1.144720372E0,1.360569314E0,1.530495541E-1,1.784644994E0
1.420263892E1,1.149112215E0,1.078989628E0,6.865040481E-1,1.719292095E0
1.421259092E1,8.993859673E-1,6.344603205E-1,1.236293324E0,1.655251098E0
1.422254192E1,6.615851153E-1,2.016026402E-1,1.775684788E0,1.905621934E0
1.423249292E1,5.330808204E-1,-1.973774421E-1,2.079380983E0,2.155680470E0
1.424244492E1,4.302224133E-1,-6.154252946E-1,2.154085010E0,2.281210611E0
1.425239592E1,2.421959846E-1,-9.236431414E-1,2.169056367E0,2.369932715E0
1.426234692E1,-1.239843972E-1,-1.123512082E0,2.035336246E0,2.328141999E0
1.427229792E1,-4.944407383E-1,-1.332642428E0,1.729862498E0,2.238935405E0
1.428224992E1,-1.024112267E0,-1.397357656E0,1.433446233E0,2.248595663E0
1.429220092E1,-1.542587583E0,-1.038146827E0,9.185847151E-1,2.073914936E0
1.430215192E1,-2.394525295E0,-1.913817072E-1,-2.223040494E-1,2.412425634E0
1.431210392E1,-2.971261464E0,-4.970413971E-1,-1.082331312E0,3.201075742E0
1.432205492E1,-2.934428391E0,-4.475903249E-1,-9.560641249E-1,3.118535825E0
1.433200592E1,-2.138701863E0,-6.521639353E-1,-8.570249364E-2,2.237567513E0
1.434195792E1,-8.525508662E-1,-7.435313576E-1,3.385526168E-1,1.180804698E0
1.435190892E1,3.365324769E-1,-3.683003265E-1,3.914124696E-1,6.341158883E-1
1.436185992E1,1.085529446E0,1.842866957E-2,3.838064115E-1,1.151529920E0
1.437181092E1,1.298977814E0,2.573190039E-1,3.993062107E-1,1.383113113E0
1.438176292E1,1.048393999E0,3.178055263E-1,4.384406749E-1,1.179983286E0
1.439171392E1,6.778779432E-1,3.187165225E-1,6.078883068E-1,9.646900648E-1
1.440166492E1,3.890453340E-1,3.423269945E-1,8.146996466E-1,9.655462481E-1
1.441161692E1,1.956093537E-1,3.484735876E-1,1.094341566E0,1.165023744E0
1.442156792E1,-2.918392841E-2,3.219775146E-1,1.199381167E0,1.242190165E0
1.443151892E1,-2.534103230E-1,4.090782237E-1,1.040535268E0,1.146418523E0
1.444146992E1,-5.333112007E-1,6.190488142E-1,8.621087980E-1,1.187802109E0
1.445142192E1,-1.105246257E0,1.151892128E0,2.281988175E0,2.784940717E0
1.446137292E1,-2.218125763E0,1.021365318E0,2.966878392E0,3.842608021E0
1.447132392E1,-2.923353180E0,5.073985702E-1,2.340385341E0,3.779001279E0
1.448127592E1,-2.419462501E0,4.732783127E-1,1.541800840E0,2.907738122E0
1.449122692E1,-1.902383280E0,-1.542051101E-1,1.045499846E0,2.176214900E0
1.450117792E1,-1.154325666E0,-7.256839013E-1,1.028355664E0,1.707805680E0
1.451112992E1,1.198167303E-1,-2.681889778E-1,1.137341917E0,1.174660807E0
1.452108092E1,8.877225993E-1,-6.383066189E-1,1.180602980E0,1.609133354E0
1.453103192E1,2.040257263E0,-4.330260801E-1,1.507378281E0,2.573392813E0
1.454098292E1,3.109016018E0,-4.636783540E-2,1.413001882E0,3.415363069E0
1.455093492E1,3.905197752E0,4.875232995E-2,7.842673011E-1,3.983468523E0
1.456088592E1,3.764828031E0,-2.598970413E-2,3.351039290E-2,3.765066867E0
1.457083692E1,2.785950629E0,-1.519147557E-1,-7.680329454E-1,2.893868277E0
1.458078892E1,1.845474523E0,-3.644171906E-1,-1.311000713E0,2.292880061E0
1.459073992E1,1.092380775E0,-4.249773878E-1,-1.776972345E0,2.128739593E0
1.460069092E1,4.909261597E-1,-4.309321922E-1,-2.078652420E0,2.178877448E0
1.461064292E1,-1.038138604E-1,-5.234673035E-1,-2.222124235E0,2.285307737E0
1.462059392E1,-6.707932375E-1,-6.924378026E-1,-1.991532269E0,2.212608067E0
1.463054492E1,-1.074010505E0,-8.648961657E-1,-1.519178109E0,2.051693463E0
1.464049592E1,-1.420849722E0,-9.382395458E-1,-1.110802574E0,2.032975587E0
1.465044792E1,-1.463479140E0,-7.297330981E-1,-7.657010758E-1,1.805707542E0
1.466039892E1,-1.034368356E0,-5.142614472E-1,-3.751702201E-1,1.214551533E0
1.467034992E1,-7.260720833E-1,-4.548373640E-1,-1.517456981E-1,8.701060020E-1
1.468030192E1,-9.626730866E-1,-1.011509251E0,-3.078523958E-1,1.429917317E0
1.469025292E1,-4.898557903E-2,-4.527335358E-1,-1.555721160E-1,4.812171284E-1
1.470020392E1,7.508764838E-1,3.469901490E-1,-5.908362910E-2,8.292819380E-1
1.471015492E1,6.324121870E-1,6.517569691E-1,-2.055096035E-1,9.311103684E-1
1.472010692E1,4.303952716E-1,7.793420452E-1,-1.636797921E-1,9.052100240E-1
1.473005792E1,-8.971086960E-2,8.318921417E-1,-3.823973787E-1,9.199567005E-1
1.474000892E1,-1.149195538E0,7.444101942E-1,-7.318714249E-1,1.552556828E0
1.474996092E1,-2.790608338E-1,5.466029817E-1,-7.431084578E-1,9.637738057E-1
1.475991192E1,4.473602369E-1,4.914304090E-1,-6.189486806E-1,9.081478391E-1
1.476986292E1,7.109282333E-1,3.726541632E-1,-2.173610325E-1,8.315863736E-1
1.477981504E1,6.230022629E-1,1.512557745E-1,1.190162739E-1,6.520544473E-1
1.478976604E1,-6.088486388E-3,-1.439140105E-1,-2.366938278E-1,2.770781121E-1
1.479971704E1,3.289984857E-1,-2.066283220E-1,-6.609023067E-1,7.666336323E-1
1.480966804E1,6.444394711E-1,2.373735666E-2,-8.476973118E-1,1.065108645E0
1.481962004E1,6.527673680E-1,3.558890265E-1,-5.247419965E-1,9.100090103E-1
1.482957104E1,4.947014876E-1,6.012908202E-1,1.233095920E-1,7.883434961E-1
1.483952204E1,5.022673826E-1,4.048547798E-1,4.869803855E-1,8.082881988E-1
1.484947404E1,5.759705127E-1,1.911454797E-2,6.609122470E-1,8.768764997E-1
1.485942504E1,-1.336138916E0,2.944114012E-1,4.778391409E-1,1.449232736E0
1.486937604E1,-1.473493374E0,3.840416157E-1,8.364909768E-1,1.737350811E0
1.487932804E1,-1.064104590E0,4.493912673E-1,1.488139772E0,1.883834141E0
1.488927904E1,-6.088780942E-1,3.732967722E-1,1.721310653E0,1.863596892E0
1.489923004E1,-1.552678050E-1,-4.714370245E-1,1.614383790E0,1.688962989E0
1.490918104E1,2.111697448E-1,-1.026401525E0,1.123453610E0,1.536307510E0
1.491913304E1,3.856212410E-1,-1.126209987E0,6.276117691E-1,1.345715130E0
1.492908404E1,2.345218796E-1,-7.446353120E-1,4.386598724E-1,8.954913419E-1
1.493903504E1,-1.437421024E-2,-1.777050698E-1,3.043341261E-1,3.527108874E-1
1.494898704E1,-1.262157861E-1,7.784924448E-2,1.996026000E-1,2.486606673E-1
1.495893804E1,-1.122075933E-1,1.403103715E-1,3.796892408E-1,4.200493589E-1
1.496888904E1,-2.462374339E-1,1.174612069E-1,4.423222759E-1,5.196912591E-1
1.497884004E1,-3.009007142E-1,1.512990439E-1,3.573373818E-1,4.910424065E-1
1.498879204E1,-9.759163722E-2,1.045002687E-1,3.930638695E-1,4.182626439E-1
1.499874304E1,-1.918575609E-1,-6.418956399E-2,5.275241017E-1,5.649878775E-1
1.500869404E1,-7.609034353E-1,3.024004519E-2,5.653953481E-1,9.484515791E-1
1.501864604E1,-8.529304236E-1,1.488297647E-1,5.285789394E-1,1.014414265E0
1.502859704E1,-8.280265474E-1,3.072179729E-1,3.025279212E-1,9.335598477E-1
1.503854804E1,-5.705222598E-1,4.533843309E-1,1.341947687E-1,7.409866641E-1
1.504850004E1,-4.906557260E-1,4.979406989E-1,2.747852218E-1,7.511290829E-1
1.505845104E1,-6.439627768E-1,6.426908612E-1,3.701252425E-1,9.822078681E-1
1.506840204E1,-5.564184468E-1,6.038723660E-1,1.707062450E-1,8.386918054E-1
1.507835304E1,-4.588238129E-1,3.553405577E-1,-4.071211606E-2,5.817591251E-1
1.508830504E1,1.471060421E-1,1.763210338E-1,-1.241004279E-1,2.610176446E-1
1.509825604E1,6.251809354E-1,1.691260350E-1,-1.042801210E-1,6.559947876E-1
1.510820704E1,3.755042058E-1,4.435276794E-1,-1.384149966E-1,5.973934401E-1
1.511815904E1,5.959101759E-1,5.237228268E-1,6.874279082E-3,7.933736779E-1
1.512811004E1,8.278943273E-1,5.987157065E-1,3.290859747E-1,1.073390466E0
1.513806104E1,8.227246577E-1,8.382726234E-1,3.470272788E-1,1.224746825E0
1.514801204E1,5.697124936E-1,8.359144413E-1,7.720137298E-2,1.014537003E0
1.515796404E1,3.030785462E-1,6.326821822E-1,-6.289879113E-2,7.043433870E-1
1.516791504E1,9.435045250E-2,2.758295345E-1,-1.601681006E-1,3.326225495E-1
1.517786604E1,1.489669550E-2,1.899818838E-2,-1.162882555E-1,1.187678452E-1
1.518781804E1,4.834357303E-2,-1.903461653E-1,1.582373500E-2,1.970257706E-1
1.519776904E1,-7.463839218E-2,-2.355656075E-1,2.039412341E-1,3.203967415E-1
1.520772004E1,-1.264522512E-1,-6.990287840E-2,4.062902713E-1,4.312173104E-1
1.521767204E1,-1.040400928E-1,-1.977931792E-1,5.125657547E-1,5.591691475E-1
1.522762304E1,2.790257322E-1,-4.450649124E-1,5.352685927E-1,7.499670672E-1
1.523757404E1,1.207302755E-1,-1.518416655E-1,7.624117246E-1,7.867040922E-1
1.524752504E1,1.495599358E-1,-1.482269168E-3,7.795861664E-1,7.938041083E-1
1.525747704E1,3.864661637E-1,-7.616056859E-2,6.306546602E-1,7.435602385E-1
1.526742804E1,3.689051478E-1,-3.618362296E-1,5.078178155E-1,7.244966521E-1
1.527737904E1,3.025856625E-1,-5.154098403E-1,4.465097594E-1,7.460404492E-1
1.528733104E1,3.067130658E-1,-5.247320563E-1,3.741680074E-1,7.137354786E-1
1.529728204E1,5.048428619E-1,-4.673486513E-1,2.973426104E-1,7.494622772E-1
1.530723304E1,7.762563233E-1,-3.211074489E-1,2.547162621E-1,8.778178897E-1
1.531718404E1,9.380299962E-1,-1.299543679E-1,2.746904969E-1,9.860239757E-1
1.532713604E1,8.812661768E-1,-2.976875961E-2,1.932317662E-1,9.026930647E-1
1.533708704E1,7.791954263E-1,1.739681143E-1,3.295398648E-1,8.637169325E-1
1.534703804E1,5.308569781E-1,3.372907877E-1,4.481319232E-1,7.722670699E-1
1.535699004E1,6.906957708E-1,3.716262227E-1,5.087581940E-1,9.348805256E-1
1.536694104E1,8.682474974E-1,4.184185660E-1,2.659291752E-1,9.998230540E-1
1.537689204E1,6.681228872E-1,4.605477548E-1,4.095834231E-1,9.089835022E-1
1.538684404E1,6.980711563E-1,1.498232067E-2,1.748459275E-1,7.197908776E-1
1.539679504E1,9.992338988E-1,-7.216259336E-1,6.031015567E-1,1.372204016E0
1.540674604E1,1.200621069E0,-6.969360656E-1,6.131497045E-1,1.517617670E0
1.541669704E1,2.065884294E0,-1.148761529E0,2.044351776E-1,2.372619798E0
1.542664904E1,2.472748615E0,-1.032156354E0,-2.631583259E-2,2.679650160E0
1.543660004E1,2.724547848E0,-8.881745160E-1,-1.459008944E-1,2.869373105E0
1.544655104E1,2.411854542E0,-3.824464953E-1,-2.626991732E-1,2.456077871E0
1.545650304E1,1.207747363E0,5.183778870E-1,-1.749321739E-1,1.325884834E0
1.546645404E1,2.274988619E-1,8.518568748E-1,-2.710030966E-1,9.224199400E-1
1.547640504E1,-6.443216497E-1,1.243780537E0,-3.319207048E-1,1.439552628E0
1.548635604E1,-1.068343237E0,1.698392783E0,-5.168855314E-1,2.071971518E0
1.549630804E1,-1.284420294E0,2.198836091E0,-6.462905534E-1,2.627224224E0
1.550625904E1,-1.081412641E0,2.398291048E0,-5.258915591E-1,2.682874426E0
1.551621004E1,-5.885012054E-1,2.316514229E0,-1.991913946E-1,2.398384676E0
1.552616204E1,-3.181736816E-1,1.979923353E0,3.433895798E-1,2.034514040E0
1.553611304E1,-1.912673210E-1,1.598864987E0,8.377658160E-1,1.815159496E0
1.554606404E1,2.527563485E-1,1.020435026E0,9.784169340E-1,1.436131300E0
1.555601504E1,7.776986852E-1,5.949126774E-1,1.018353563E0,1.412720892E0
1.556596704E1,1.101500677E0,2.666844893E-1,1.180833360E0,1.636701495E0
1.557591804E1,9.598994599E-1,-3.990426475E-1,1.363028215E0,1.714201832E0
1.558586904E1,9.806867500E-1,-1.158341607E0,1.476634791E0,2.117534436E0
1.559582104E1,7.260149999E-1,-7.531669843E-1,9.138262510E-1,1.389041649E0
1.560577204E1,-1.518182036E-2,5.610403419E-2,-1.576957516E-1,1.680657621E-1
1.561572304E1,2.299750116E-1,-1.144056859E0,3.818502255E-1,1.227829059E0
1.562567404E1,8.447240026E-1,-3.539707305E0,1.607559797E0,3.978358323E0
1.563562604E1,1.162493934E0,-5.182189597E0,2.555301068E0,5.893729270E0
1.564557704E1,1.847516663E0,-4.949181561E0,5.656539119E0,7.739777178E0
1.565552804E1,2.295780002E0,-3.047093419E0,5.558378402E0,6.741732313E0
1.566548004E1,1.159100502E0,3.745512924E0,1.590815710E0,4.231202626E0
1.567543104E1,1.011928643E0,8.092773335E0,1.957378829E-1,8.158142751E0
1.568538204E1,1.516012280E0,-1.767214512E0,4.350529590E0,4.934414664E0
1.569533404E1,2.201097501E0,-9.198330957E-1,2.452088502E0,3.421061408E0
1.570528504E1,1.028717168E0,-3.382379782E0,4.749611413E-1,3.567119298E0
1.571523604E1,-1.495070185E0,-7.046863745E0,-2.099018272E0,7.503292691E0
1.572518704E1,-3.253313021E0,-4.977999564E0,-5.446466203E0,8.064026250E0
1.573513904E1,-3.382841712E0,-8.940848815E-1,-6.849684523E0,7.691630769E0
1.574509004E1,-2.380086035E0,7.785783988E-1,-6.164670346E0,6.653882651E0
1.575504104E1,-1.387405695E0,2.543777960E0,-6.160997125E0,6.808346822E0
1.576499304E1,8.275171453E-2,6.257458642E0,-6.955970532E0,9.356717509E0
1.577494475E1,1.426660393E0,6.054283100E0,-6.879911120E0,9.274852061E0
1.578489575E1,1.472553142E0,1.425135439E0,-5.340009456E0,5.719713696E0
1.579484675E1,4.962662390E-1,-3.211565071E0,-3.446907899E0,4.737257060E0
1.580479875E1,-2.523065149E-1,-4.610362312E0,1.080669241E-1,4.618525488E0
1.581474975E1,-4.394379906E-1,-3.459026254E0,4.140966550E0,5.413462140E0
1.582470075E1,-4.548079086E-1,-2.490212202E0,5.610312202E0,6.154966291E0
1.583465275E1,-8.855929703E-2,-4.139489543E-1,5.067177204E0,5.084828542E0
1.584460375E1,1.244516629E-1,2.447586000E-1,3.340639433E0,3.351904952E0
1.585455475E1,-1.271314418E-1,-4.472400767E-1,1.180432534E0,1.268702903E0
1.586450575E1,-7.994517893E-2,-1.861893797E-1,-1.156268184E0,1.173888338E0
1.587445775E1,-7.314647511E-3,7.866329384E-1,-2.856178905E0,2.962533176E0
1.588440875E1,-1.128612024E-1,1.561547472E0,-3.352308136E0,3.699883511E0
1.589435975E1,-2.488012187E-2,1.511584184E0,-2.838982244E0,3.216415076E0
1.590431175E1,8.290262020E-1,9.931700438E-1,-1.850981577E0,2.258274558E0
1.591426275E1,1.745572212E0,2.898213369E-1,-1.085104208E0,2.075685404E0
1.592421375E1,1.458731055E0,-3.858636081E-1,-3.211103725E-1,1.542692091E0
1.593416475E1,1.664208207E0,-5.952898228E-1,6.763367634E-1,1.892456167E0
1.594411675E1,1.417026667E0,-4.682134545E-1,8.845479266E-1,1.734823751E0
1.595406775E1,6.567700063E-1,4.709815264E-2,3.833153915E-1,7.619027278E-1
1.596401875E1,-3.607714150E-1,5.017443126E-1,1.418195379E-1,6.340474355E-1
1.597397075E1,-1.105990462E0,1.164754248E0,4.768316656E-2,1.606904180E0
1.598392175E1,-1.312697575E0,7.843291354E-1,-1.106525628E-1,1.533163757E0
1.599387275E1,-1.360613168E0,-2.938956767E-1,-8.448875785E-2,1.394554127E0
1.600382375E1,-1.708628334E0,-1.336094624E-1,4.563294272E-1,1.773555418E0
1.601377575E1,-2.242176384E0,-1.605218571E-1,7.460358663E-1,2.368478777E0
1.602372675E1,-2.370059229E0,-3.806671876E-1,8.287727983E-1,2.539478807E0
1.603367775E1,-1.970603769E0,-1.336831373E-1,3.046877365E-1,1.998495687E0
1.604362975E1,-2.064101185E0,-5.176750517E-1,-8.144631998E-1,2.278563466E0
1.605358075E1,-1.667861693E0,-1.055023645E0,-1.522429161E0,2.492514407E0
1.606353175E1,-5.740936661E-1,-2.065969225E0,-1.716368148E0,2.746585515E0
1.607348375E1,-5.939353153E-1,-2.833395229E0,-1.083470349E0,3.091083254E0
1.608343475E1,-7.008566236E-1,-3.114043454E0,-4.491104548E-1,3.223378172E0
1.609338575E1,5.316186145E-2,-2.295366020E0,-5.403996706E-3,2.295987925E0
1.610333675E1,1.164509396E0,-4.425938791E-1,-1.262657981E-1,1.252163938E0
1.611328875E1,1.950484669E0,7.524811059E-1,-9.269089575E-1,2.286870891E0
1.612323975E1,2.527121581E0,2.063799908E0,-7.336245663E-1,3.344221666E0
1.613319075E1,3.405341213E0,2.237033612E0,-1.053726587E0,4.208444828E0
1.614314275E1,1.961248223E0,-1.473831636E-1,-1.712457530E0,2.607820389E0
1.615309375E1,1.443433131E0,-1.438515623E0,-5.156965001E-1,2.102086887E0
1.616304475E1,1.634480962E0,-1.699580938E0,1.478372437E0,2.783107695E0
1.617299575E1,1.386311389E0,-1.874460633E0,1.340761725E0,2.689443053E0
1.618294775E1,5.821771494E-1,-1.793309466E0,5.039237161E-1,1.951621937E0
1.619289875E1,6.689176700E-1,-1.168890569E0,1.853381713E-1,1.359450716E0
1.620284975E1,1.077409418E0,-1.238916823E0,3.100427628E-2,1.642159314E0
1.621280175E1,8.620444787E-1,-1.196036267E0,-1.525537102E-1,1.482192994E0
1.622275275E1,5.991621414E-1,-1.620962784E0,-1.664934723E-1,1.736155435E0
1.623270375E1,3.003571424E-1,-1.840028719E0,3.420282018E-1,1.895495552E0
1.624265475E1,-5.346021563E-2,-1.810088636E0,7.112341158E-1,1.945541783E0
1.625260675E1,-2.084102610E-1,-1.532772154E0,9.894623244E-1,1.836262782E0
1.626255775E1,-4.286055851E-1,-1.346344793E0,1.133735500E0,1.811547193E0
1.627250875E1,-7.318322486E-1,-1.355348336E0,8.133723287E-1,1.741873157E0
1.628246075E1,-9.346616346E-1,-1.500808935E0,4.908350162E-1,1.834922026E0
1.629241175E1,-6.217771250E-1,-1.729550257E0,-4.145396693E-1,1.884089706E0
1.630236275E1,-4.680921248E-1,-1.920537862E0,-1.376293062E0,2.408683978E0
1.631231375E1,-5.715434030E-1,-1.967246005E0,-2.104554416E0,2.936982805E0
